"Time (s)","Linear Acceleration x (m/s^2)","Linear Acceleration y (m/s^2)","Linear Acceleration z (m/s^2)"
1.097350100E-2,1.149141788E-2,6.885528564E-4,-2.421379089E-2
1.597350100E-2,7.430434227E-3,1.058149338E-2,-4.559898376E-2
2.097350100E-2,-1.840591431E-3,5.491733551E-3,-9.659481049E-2
2.597350100E-2,5.851483345E-2,-3.649806976E-2,-1.230144501E-1
3.097350100E-2,1.341482401E-1,-9.772109985E-2,-1.421003342E-1
3.597350100E-2,1.833101511E-1,-1.283068657E-1,-1.923732758E-1
4.097350100E-2,2.043597698E-1,-1.412100792E-1,-2.600502968E-1
4.597350100E-2,2.222275734E-1,-1.399989128E-1,-2.722501755E-1
5.097350100E-2,2.845435143E-1,-1.440730095E-1,-2.721076012E-1
5.597350100E-2,3.169894218E-1,-1.464414597E-1,-2.545499802E-1
6.097350100E-2,3.132220507E-1,-1.445202827E-1,-2.647590637E-1
6.597350100E-2,3.383810520E-1,-1.297168732E-1,-2.236852646E-1
7.097350100E-2,3.727816343E-1,-1.410193443E-1,-1.490750313E-1
7.597350100E-2,4.143048525E-1,-1.497473717E-1,-7.120037079E-2
8.097350100E-2,4.225536585E-1,-1.464653015E-1,-8.722305298E-3
8.597350100E-2,4.523921013E-1,-1.748356819E-1,2.249717712E-3
9.097350100E-2,4.835523367E-1,-1.973428726E-1,1.279354095E-2
9.597350100E-2,4.769489765E-1,-2.059321404E-1,6.521987915E-2
1.009735010E-1,4.526217580E-1,-1.922059059E-1,1.047611237E-1
1.059735010E-1,4.050734043E-1,-1.672472954E-1,1.069812775E-1
1.109735010E-1,3.130929470E-1,-1.430449486E-1,3.637313843E-2
1.159735010E-1,1.821848750E-1,-1.127076149E-1,-8.624553680E-2
1.209735010E-1,5.114924908E-2,-6.069326401E-2,-2.272911072E-1
1.259735010E-1,-9.166216850E-2,-5.675220490E-2,-3.517413139E-1
1.309735010E-1,-1.735559702E-1,-7.370471954E-2,-3.812532425E-1
1.359735010E-1,-2.391383648E-1,-1.174459457E-1,-3.593130112E-1
1.409735010E-1,-3.252906799E-1,-1.652994156E-1,-2.667093277E-1
1.459735010E-1,-4.027715921E-1,-1.923308372E-1,-1.309309006E-1
1.509735010E-1,-4.160702229E-1,-2.202510834E-1,5.477571487E-2
1.559735010E-1,-3.888093233E-1,-2.080335617E-1,2.037544250E-1
1.609735010E-1,-3.198003769E-1,-1.844015121E-1,2.720198631E-1
1.659735010E-1,-2.351422310E-1,-1.496591568E-1,2.737927437E-1
1.709735010E-1,-1.689220667E-1,-1.224713326E-1,2.337222099E-1
1.759735010E-1,-1.076114178E-1,-8.457422256E-2,1.072182655E-1
1.809735010E-1,-2.803194523E-2,-7.389020920E-2,-8.853626251E-2
1.859735010E-1,5.182290077E-2,-8.090305328E-2,-3.003921509E-1
1.909735010E-1,1.320073605E-1,-1.005492210E-1,-4.244532585E-1
1.959735010E-1,1.828049421E-1,-1.370825768E-1,-4.674019814E-1
2.009735010E-1,2.597414851E-1,-1.829257011E-1,-4.657688141E-1
2.059735010E-1,2.999994159E-1,-2.183189392E-1,-4.192423820E-1
2.109735010E-1,2.948273420E-1,-2.226490974E-1,-3.367280960E-1
2.159735010E-1,2.525793314E-1,-2.481608391E-1,-2.311758995E-1
2.209735010E-1,2.054308057E-1,-2.803530693E-1,-1.063156128E-1
2.259735010E-1,1.435624957E-1,-2.652106285E-1,-1.815319061E-2
2.309735010E-1,1.207496524E-1,-2.317442894E-1,6.428766251E-2
2.359735010E-1,1.050007343E-1,-2.259440422E-1,1.050114632E-1
2.409735010E-1,7.981598377E-2,-2.094578743E-1,6.318044662E-2
2.459735010E-1,-1.316726208E-2,-1.893959045E-1,-8.459568024E-3
2.509735010E-1,-9.032618999E-2,-1.434483528E-1,-1.092777252E-1
2.559735010E-1,-1.489011049E-1,-8.532762527E-2,-2.427926064E-1
2.609735010E-1,-1.654187441E-1,-4.515028000E-2,-4.007806778E-1
2.659735010E-1,-2.151496410E-1,-1.616907120E-2,-5.169396400E-1
2.709735010E-1,-3.251392841E-1,1.321077347E-2,-5.741500854E-1
2.759735010E-1,-3.970278502E-1,5.477619171E-2,-6.206674576E-1
2.809735010E-1,-4.028052092E-1,7.603740692E-2,-5.967650414E-1
2.859735010E-1,-3.449567556E-1,6.768131256E-2,-5.784845352E-1
2.909735010E-1,-2.583339214E-1,7.354354858E-2,-5.361299515E-1
2.959735010E-1,-1.733422279E-1,4.559087753E-2,-4.408545494E-1
3.009735010E-1,-1.132006645E-1,1.017808914E-2,-3.663702011E-1
3.059735010E-1,-7.774949074E-2,-4.785108566E-2,-2.787456512E-1
3.109735010E-1,-3.624415398E-2,-8.965301514E-2,-1.803689003E-1
3.159735010E-1,1.179349422E-2,-1.294589043E-1,-8.105182648E-2
3.209735010E-1,8.277523518E-2,-1.622920036E-1,3.039836884E-2
3.259735010E-1,1.163982749E-1,-1.802191734E-1,1.345162392E-1
3.309735010E-1,9.112930298E-2,-1.815195084E-1,2.375559807E-1
3.359735010E-1,6.660735607E-2,-1.820292473E-1,2.896652222E-1
3.409735010E-1,7.685184479E-3,-1.421780586E-1,3.274974823E-1
3.459735010E-1,-5.712330341E-2,-4.763317108E-2,3.270864487E-1
3.509735010E-1,-1.120272875E-1,4.974222183E-2,2.935333252E-1
3.559735010E-1,-1.524984837E-1,1.221890450E-1,2.044520378E-1
3.609735010E-1,-1.944816113E-1,1.953482628E-1,9.959888458E-2
3.659735010E-1,-1.810388565E-1,2.715458870E-1,-4.144525528E-2
3.709735010E-1,-1.563014984E-1,3.539676666E-1,-1.752996445E-1
3.759735010E-1,-1.418954134E-1,3.818221092E-1,-2.821903229E-1
3.809735010E-1,-1.046705246E-1,3.867650032E-1,-3.566741943E-1
3.859735010E-1,-6.083202362E-2,3.844203949E-1,-4.126715660E-1
3.909735010E-1,1.834785938E-2,3.627948761E-1,-4.220228195E-1
3.959735010E-1,3.603625298E-2,3.407988548E-1,-3.589930534E-1
4.009735010E-1,6.347119808E-2,2.962322235E-1,-2.763385773E-1
4.059735010E-1,4.874730110E-2,2.669849396E-1,-1.754093170E-1
4.109735010E-1,5.516648293E-2,2.503108978E-1,-1.101317406E-1
4.159735010E-1,8.218836784E-2,2.136168480E-1,-6.988334656E-2
4.209735010E-1,8.894300461E-2,1.752066612E-1,-3.501939774E-2
4.259735010E-1,1.133697033E-1,1.688752174E-1,2.185058594E-2
4.309735010E-1,1.493673325E-1,1.220154762E-1,8.753252029E-2
4.359735010E-1,1.849927902E-1,6.977224350E-2,1.679706573E-1
4.409735010E-1,2.267170548E-1,3.249311447E-2,2.445244789E-1
4.459735010E-1,2.673881054E-1,7.689952850E-3,2.984371185E-1
4.509735010E-1,2.788263559E-1,-3.811836243E-3,3.434729576E-1
4.559735010E-1,2.872757316E-1,-6.112575531E-3,3.612217903E-1
4.609735010E-1,3.188420534E-1,-1.747608185E-3,3.387179375E-1
4.659735010E-1,3.463186026E-1,1.647996902E-2,2.574558258E-1
4.709735010E-1,3.302299976E-1,2.788448334E-2,1.842255592E-1
4.759735010E-1,3.263368011E-1,2.280378342E-2,4.837322235E-2
4.809735010E-1,3.525459170E-1,2.480125427E-2,-9.813499451E-2
4.859735010E-1,3.831726909E-1,1.951408386E-2,-2.437763214E-1
4.909735010E-1,4.275028110E-1,4.205703735E-4,-3.636512756E-1
4.959735010E-1,4.682836831E-1,-3.015756607E-2,-4.528627396E-1
5.009735010E-1,4.897597730E-1,-6.291151047E-2,-4.928064346E-1
5.059735010E-1,4.821082652E-1,-8.663415909E-2,-4.991431236E-1
5.109735010E-1,4.852796793E-1,-1.256422997E-1,-4.801225662E-1
5.159735010E-1,4.857905805E-1,-1.478753090E-1,-4.448709488E-1
5.209735010E-1,4.832395017E-1,-1.768803596E-1,-3.918662071E-1
5.259735010E-1,5.100088120E-1,-2.156391144E-1,-3.179678917E-1
5.309735010E-1,4.631475508E-1,-2.108459473E-1,-2.430844307E-1
5.359735010E-1,3.911797106E-1,-2.048664093E-1,-1.913270950E-1
5.409735010E-1,2.813131809E-1,-1.848478317E-1,-1.862812042E-1
5.459735010E-1,1.590864062E-1,-1.513109207E-1,-1.681675911E-1
5.509735010E-1,5.729585886E-2,-1.000118256E-1,-1.962018013E-1
5.559735010E-1,-4.240274429E-4,-7.084560394E-2,-1.971840858E-1
5.609735010E-1,-2.495700121E-2,-4.724693298E-2,-2.746558189E-1
5.659735010E-1,8.242487907E-3,-3.093624115E-2,-3.573417664E-1
5.709735010E-1,3.046327829E-2,-3.342628479E-3,-4.385123253E-1
5.759735010E-1,6.678706408E-2,1.934671402E-2,-5.137443542E-1
5.809735010E-1,1.123003364E-1,3.724813461E-2,-5.537643433E-1
5.859735010E-1,1.829524636E-1,4.486274719E-2,-5.413527489E-1
5.909735010E-1,2.920542955E-1,2.536439896E-2,-5.171747208E-1
5.959735010E-1,3.790216148E-1,6.985664368E-4,-5.065841675E-1
6.009735010E-1,4.367577136E-1,-1.484918594E-2,-5.327506065E-1
6.059735010E-1,4.762277007E-1,-3.862714767E-2,-5.033464432E-1
6.109735010E-1,5.395849347E-1,-6.656551361E-2,-4.546661377E-1
6.159735010E-1,6.123657227E-1,-1.000819206E-1,-3.694334030E-1
6.209735010E-1,6.346999407E-1,-1.180262566E-1,-2.918076515E-1
6.259735010E-1,5.812003016E-1,-1.249356270E-1,-1.826710701E-1
6.309735010E-1,4.951488376E-1,-9.952211380E-2,-7.971715927E-2
6.359735010E-1,3.853187561E-1,-5.801486969E-2,2.144765854E-2
6.409735010E-1,2.609185576E-1,4.331588745E-3,9.543514252E-2
6.459735010E-1,1.036084294E-1,4.844427109E-2,1.817541122E-1
6.509735010E-1,-2.880591154E-2,1.054649353E-1,2.679586411E-1
6.559735010E-1,-1.229884624E-1,1.629629135E-1,3.365793228E-1
6.609735010E-1,-1.909981370E-1,1.787533760E-1,4.284844398E-1
6.659735010E-1,-1.863685250E-1,1.859006882E-1,4.121680260E-1
6.709735010E-1,-1.316715479E-1,1.926479340E-1,3.903288841E-1
6.759735010E-1,-5.772954226E-2,2.030992508E-1,3.139944077E-1
6.809735010E-1,9.254336357E-3,1.924047470E-1,1.722650528E-1
6.859735010E-1,6.939077377E-2,1.782131195E-1,-1.739549637E-2
6.909735010E-1,1.242409945E-1,1.498212814E-1,-1.806387901E-1
6.959735010E-1,1.814814806E-1,1.278777122E-1,-3.101167679E-1
7.009735010E-1,2.096235454E-1,1.270270348E-1,-4.155521393E-1
7.059735010E-1,1.808025241E-1,1.454234123E-1,-4.568104744E-1
7.109735010E-1,1.184076071E-1,1.598248482E-1,-4.640436172E-1
7.159735010E-1,7.032799721E-2,1.535863876E-1,-4.207143784E-1
7.209735010E-1,2.950990200E-2,1.277017593E-1,-4.034099579E-1
7.259735010E-1,3.611505032E-3,1.241016388E-1,-3.665351868E-1
7.309735010E-1,-3.662079573E-2,1.370024681E-1,-3.534417152E-1
7.359735010E-1,-9.926700592E-2,1.333808899E-1,-3.164391518E-1
7.409735010E-1,-1.253950596E-1,1.242051125E-1,-2.433600426E-1
7.459735010E-1,-1.160758138E-1,1.112856865E-1,-1.479535103E-1
7.509735010E-1,-9.189432859E-2,8.007621765E-2,-4.403877258E-2
7.559735010E-1,-6.140637398E-2,4.687118530E-2,3.905820847E-2
7.609735010E-1,-2.763831615E-2,1.404285431E-2,9.671783447E-2
7.659735010E-1,1.343256235E-2,-1.969861984E-2,1.241140366E-1
7.709735010E-1,9.266781807E-2,-6.512832642E-2,1.551632881E-1
7.759735010E-1,2.160877287E-1,-1.043500900E-1,1.772980690E-1
7.809735010E-1,3.399372697E-1,-1.481161118E-1,1.496930122E-1
7.859735010E-1,4.421317577E-1,-1.735782623E-1,1.117687225E-1
7.909735010E-1,5.070049763E-1,-1.674251556E-1,6.032752991E-2
7.959735010E-1,4.968577921E-1,-1.508555412E-1,-1.169347763E-2
8.009735010E-1,4.598976970E-1,-1.570377350E-1,-1.001768112E-1
8.059735010E-1,3.674258590E-1,-1.625957489E-1,-1.586127281E-1
8.109735010E-1,2.625426948E-1,-1.208119392E-1,-1.878042221E-1
8.159735010E-1,1.438372433E-1,-4.895067215E-2,-2.086834908E-1
8.209735010E-1,2.828645706E-2,4.259109497E-2,-2.463130951E-1
8.259735010E-1,-3.655654192E-2,1.250252724E-1,-3.055925369E-1
8.309735010E-1,-1.083537936E-1,1.690225601E-1,-3.710622787E-1
8.359735010E-1,-1.254186630E-1,1.872029305E-1,-4.350380898E-1
8.409735010E-1,-1.468910575E-1,2.034430504E-1,-4.908857346E-1
8.459735010E-1,-1.382161379E-1,1.958961487E-1,-5.362567902E-1
8.509735010E-1,-1.352144480E-1,1.993403435E-1,-5.669956207E-1
8.559735010E-1,-1.432048082E-1,1.902232170E-1,-6.050195694E-1
8.609735010E-1,-1.214861274E-1,1.676936150E-1,-6.236181259E-1
8.659735010E-1,-1.074429750E-1,1.635484695E-1,-6.438364983E-1
8.709735010E-1,-7.624334097E-2,1.695466042E-1,-6.518759727E-1
8.759735010E-1,-5.697369576E-2,1.809306145E-1,-6.039357185E-1
8.809735010E-1,-6.748348475E-2,1.815161705E-1,-5.005798340E-1
8.859735010E-1,-1.002453566E-1,1.709022522E-1,-3.424854279E-1
8.909735010E-1,-1.502258182E-1,1.398587227E-1,-2.030043602E-1
8.959735010E-1,-1.676940322E-1,1.081547737E-1,-7.022857666E-2
9.009735010E-1,-1.252392530E-1,8.941888809E-2,2.283668518E-2
9.059735010E-1,-8.434563875E-2,9.594821930E-2,1.030964851E-1
9.109735010E-1,-4.558044672E-2,1.011681557E-1,1.635222435E-1
9.159735010E-1,-6.376063824E-2,9.889650345E-2,2.224593163E-1
9.209735010E-1,-6.256079674E-2,9.064054489E-2,2.467517853E-1
9.259735010E-1,-4.642879963E-2,8.363342285E-2,2.586784363E-1
9.309735010E-1,-4.547691345E-2,7.303953171E-2,2.365951538E-1
9.359735010E-1,-9.306669235E-2,7.262754440E-2,2.181506157E-1
9.409735010E-1,-1.344826221E-1,7.463502884E-2,1.987409592E-1
9.459735010E-1,-1.632112265E-1,8.854722977E-2,1.371641159E-1
9.509735010E-1,-1.627169847E-1,1.039795876E-1,8.154249191E-2
9.559735010E-1,-1.637144089E-1,1.068224907E-1,2.240324020E-2
9.609735010E-1,-1.541926861E-1,1.132159233E-1,-1.876449585E-2
9.659735010E-1,-1.339743137E-1,1.083903313E-1,-8.827161789E-2
9.709735010E-1,-1.150527596E-1,1.033649445E-1,-1.671338081E-1
9.759735010E-1,-1.061052680E-1,1.130533218E-1,-1.860904694E-1
9.809735010E-1,-9.099614620E-2,1.148123741E-1,-1.764569283E-1
9.859735010E-1,-1.053672433E-1,1.032505035E-1,-1.617755890E-1
9.909735010E-1,-1.080921888E-1,9.202194214E-2,-1.314325333E-1
9.959735010E-1,-8.831262589E-2,1.101880074E-1,-8.343267441E-2
1.000973501E0,-6.793785095E-2,1.033506393E-1,-8.287668228E-2
1.005973501E0,-7.758218050E-2,7.497644424E-2,-6.297254562E-2
1.010973501E0,-7.330995798E-2,3.776788712E-2,2.283096313E-2
1.015973501E0,-6.587743759E-2,2.071762085E-2,1.200890541E-1
1.020973501E0,-4.192274809E-2,2.711677551E-2,1.822786331E-1
1.025973501E0,-3.787100315E-2,2.445030212E-2,2.052087784E-1
1.030973501E0,-6.702268124E-2,1.954746246E-2,2.221279144E-1
1.035973501E0,-9.479528666E-2,-1.456308365E-2,2.268843651E-1
1.040973501E0,-5.870324373E-2,-1.909112930E-2,2.274322510E-1
1.045973501E0,4.521727562E-3,3.843784332E-3,1.831946373E-1
1.050973501E0,5.829638243E-2,1.131725311E-2,1.167101860E-1
1.055973501E0,6.928405166E-2,3.030776978E-2,-1.003456116E-2
1.060973501E0,6.062209606E-2,6.184053421E-2,-1.487360001E-1
1.065973501E0,2.280220389E-2,6.470298767E-2,-3.118486404E-1
1.070973501E0,-2.994692326E-2,7.048988342E-2,-3.899126053E-1
1.075973501E0,-6.479048729E-2,1.162199974E-1,-4.114890099E-1
1.080973501E0,-1.262942553E-1,1.577153206E-1,-4.235081673E-1
1.085973501E0,-2.212903500E-1,1.893424988E-1,-4.375791550E-1
1.090973501E0,-2.839269638E-1,2.030820847E-1,-4.441208839E-1
1.095973501E0,-2.792582512E-1,2.049551010E-1,-4.119634628E-1
1.100973501E0,-2.333622575E-1,1.810069084E-1,-3.619618416E-1
1.105973501E0,-1.773434877E-1,1.350665092E-1,-2.901601791E-1
1.110973501E0,-1.056571603E-1,1.021318436E-1,-2.596077919E-1
1.115973501E0,-2.759552002E-2,4.199934006E-2,-2.024755478E-1
1.120973501E0,1.210081577E-2,-5.439758301E-3,-1.318006516E-1
1.125973501E0,1.061040163E-2,-2.759552002E-2,-6.417179108E-2
1.130973501E0,1.703873277E-2,-3.504180908E-2,4.763412476E-2
1.135973501E0,2.683493495E-2,-3.919124603E-2,1.189203262E-1
1.140973501E0,3.222706914E-2,-4.516077042E-2,1.424803734E-1
1.145973501E0,2.546557784E-2,-5.989885330E-2,1.438584328E-1
1.150973501E0,4.875564575E-2,-5.462932587E-2,1.115927696E-1
1.155973501E0,6.873440742E-2,-4.589414597E-2,6.332159042E-2
1.160973501E0,7.825794816E-2,-4.715061188E-2,1.858377457E-2
1.165973501E0,5.682504177E-2,-5.669307709E-2,-1.389980316E-3
1.170973501E0,5.334252119E-2,-5.132913589E-2,-3.664493561E-2
1.175973501E0,5.432987213E-2,-8.703708649E-3,-6.042861938E-2
1.180973501E0,3.424826264E-2,1.617431641E-2,-9.120655060E-2
1.185973501E0,-1.136046648E-2,1.681947708E-2,-1.108198166E-1
1.190973501E0,-6.658434868E-2,3.882312775E-2,-1.335105896E-1
1.195973501E0,-9.424415231E-2,8.521652222E-2,-1.683130264E-1
1.200973501E0,-1.367437243E-1,1.515645981E-1,-2.099685669E-1
1.205973501E0,-2.025098205E-1,1.602854729E-1,-2.314157486E-1
1.210973501E0,-2.271463275E-1,1.751689911E-1,-2.503094673E-1
1.215973501E0,-2.104916573E-1,1.850318909E-1,-2.429714203E-1
1.220973501E0,-2.140182257E-1,1.791839600E-1,-2.262153625E-1
1.225973501E0,-2.048388720E-1,1.645340919E-1,-2.073245049E-1
1.230973501E0,-1.782932878E-1,1.480541229E-1,-1.688156128E-1
1.235973501E0,-1.368764639E-1,1.364684105E-1,-1.332974434E-1
1.240973501E0,-1.014598012E-1,1.283340454E-1,-1.338658333E-1
1.245973501E0,-9.747338295E-2,9.341096878E-2,-5.928707123E-2
1.250973501E0,-9.222483635E-2,6.733703613E-2,-2.780008316E-2
1.255973501E0,-7.909625769E-2,5.722093582E-2,3.346443176E-3
1.260973501E0,-7.234698534E-2,5.439519882E-2,4.737424850E-2
1.265973501E0,-3.990072012E-2,5.321979523E-2,8.351993561E-2
1.270973501E0,-2.625697851E-2,5.491542816E-2,1.041860580E-1
1.275973501E0,-2.904599905E-2,4.157924652E-2,1.314435005E-1
1.280973501E0,-4.165470600E-3,4.177951813E-2,1.285853386E-1
1.285973501E0,-4.275739193E-3,5.619239807E-2,9.937095642E-2
1.290973501E0,-1.812672615E-2,8.490180969E-2,6.671762466E-2
1.295973501E0,-2.151176333E-2,1.066703796E-1,5.914878845E-2
1.300973501E0,-6.599545479E-3,1.140389442E-1,5.685567856E-2
1.305973501E0,3.097838163E-2,1.242256165E-1,2.058029175E-2
1.310973501E0,4.613593221E-2,1.057705879E-1,-8.159160614E-3
1.315973501E0,4.304465652E-2,7.810688019E-2,-3.200674057E-2
1.320973501E0,4.269698262E-2,5.569553375E-2,-3.044986725E-2
1.325973501E0,4.028472304E-2,4.412937164E-2,-1.234006882E-2
1.330973501E0,6.906986237E-4,3.563928604E-2,-3.643035889E-4
1.335973501E0,-8.041113615E-2,4.127502441E-2,-3.762912750E-2
1.340973501E0,-1.702563465E-1,5.340766907E-2,-4.848003387E-2
1.345973501E0,-2.194325626E-1,7.815980911E-2,-7.427835464E-2
1.350973501E0,-2.552435398E-1,7.526397705E-2,-3.621101379E-2
1.355973501E0,-2.758644521E-1,7.676887512E-2,-3.121614456E-2
1.360973501E0,-2.782798409E-1,7.202625275E-2,-4.466581345E-2
1.365973501E0,-2.663625777E-1,7.294225693E-2,-1.109504700E-1
1.370973501E0,-2.388057113E-1,8.117818832E-2,-1.557936668E-1
1.375973501E0,-1.869605184E-1,4.834699631E-2,-2.315330505E-1
1.380973501E0,-9.981089830E-2,3.889274597E-2,-2.247872353E-1
1.385973501E0,-1.366183162E-2,-7.746696472E-3,-2.490916252E-1
1.390973501E0,4.880324006E-2,-1.009941101E-2,-2.837791443E-1
1.395973501E0,9.449204803E-2,3.070831299E-3,-2.999768257E-1
1.400973501E0,1.191180944E-1,1.293897629E-2,-3.017568588E-1
1.405973501E0,1.053885221E-1,3.387403488E-2,-2.681770325E-1
1.410973501E0,7.950752974E-2,3.052616119E-2,-2.133784294E-1
1.415973501E0,2.944025397E-2,3.983831406E-2,-1.549344063E-1
1.420973501E0,-4.065477848E-2,7.459592819E-2,-1.125707626E-1
1.425973501E0,-1.251790226E-1,9.502553940E-2,-1.107325554E-1
1.430973501E0,-2.070040703E-1,1.188492775E-1,-9.389877319E-2
1.435973501E0,-2.450437844E-1,1.200089455E-1,-7.727670670E-2
1.440973501E0,-1.937416494E-1,1.156964302E-1,-4.737234116E-2
1.445973501E0,-1.225733757E-1,1.014652252E-1,1.580524445E-2
1.450973501E0,-8.667126298E-2,5.770683289E-2,6.943368912E-2
1.455973501E0,-5.395135283E-2,2.529573441E-2,1.064419746E-1
1.460973501E0,-1.237213612E-2,1.315307617E-2,1.281089783E-1
1.465973501E0,2.351862192E-2,-1.624584198E-3,1.419477463E-1
1.470973501E0,3.526303172E-2,6.155967712E-4,1.259536743E-1
1.475973501E0,3.028199077E-2,2.321767807E-2,1.342258453E-1
1.480973501E0,4.828405380E-2,5.868816376E-2,8.840799332E-2
1.485973501E0,7.286542654E-2,5.807685852E-2,4.634666443E-2
1.490973501E0,7.507991791E-2,7.569694519E-2,-1.309156418E-2
1.495973501E0,8.965316415E-2,7.779741287E-2,-8.226060867E-2
1.500973501E0,9.426471591E-2,8.746433258E-2,-1.091008186E-1
1.505973501E0,5.230697989E-2,1.040177345E-1,-1.474781036E-1
1.510973501E0,-3.448277712E-2,1.434774399E-1,-1.585030556E-1
1.515973501E0,-5.061054230E-2,1.488523483E-1,-1.440463066E-1
1.520973501E0,-3.672793508E-2,1.543030739E-1,-1.131381989E-1
1.525973501E0,-2.795892954E-2,1.598343849E-1,-7.029342651E-2
1.530973501E0,-4.048639536E-2,1.495513916E-1,-2.195692062E-2
1.535973501E0,-3.809928894E-2,1.320261955E-1,3.360939026E-2
1.540973501E0,-6.455019116E-2,1.024918556E-1,8.268928528E-2
1.545973501E0,-4.089117050E-2,9.965133667E-2,1.179542542E-1
1.550973501E0,-2.069455385E-2,7.688283920E-2,1.452875137E-1
1.555973501E0,-1.457095146E-3,5.714511871E-2,1.693115234E-1
1.560973501E0,1.726183295E-2,3.040122986E-2,1.563506126E-1
1.565973501E0,4.932698607E-2,2.844953537E-2,1.199579239E-1
1.570973501E0,6.012433767E-2,1.483392715E-2,6.748485565E-2
1.575973501E0,5.851706862E-2,1.323843002E-2,3.488159180E-2
1.580973501E0,8.411756158E-2,2.206611633E-2,3.402233124E-2
1.585973501E0,1.108077765E-1,3.813076019E-2,6.628131866E-2
1.590973501E0,9.841060638E-2,3.363084793E-2,6.165361404E-2
1.595973501E0,5.712234974E-2,2.061986923E-2,4.658412933E-2
1.600973501E0,3.894460201E-2,1.007938385E-2,5.189514160E-2
1.605973501E0,2.410811186E-2,4.312038422E-2,4.605579376E-2
1.610973501E0,2.472707629E-2,2.350997925E-2,6.277036667E-2
1.615973501E0,1.490792632E-2,5.370616913E-3,4.870033264E-2
1.620973501E0,3.248757124E-2,9.078979492E-4,-1.110649109E-2
1.625973501E0,-3.586232662E-3,-1.310682297E-2,-9.098339081E-2
1.630973501E0,-4.278600216E-2,-2.372550964E-2,-1.771287918E-1
1.635973501E0,-5.086010695E-2,-4.926204681E-3,-2.065196037E-1
1.640973501E0,-5.044245720E-2,6.477355957E-3,-2.019605637E-1
1.645973501E0,-4.685527086E-2,1.198196411E-2,-1.796975136E-1
1.650973501E0,-5.012491345E-2,7.283210754E-3,-1.452441216E-1
1.655973501E0,-2.636861801E-2,-7.424354553E-4,-1.100964546E-1
1.660973501E0,-1.433554292E-2,-1.636028290E-3,-7.797145844E-2
1.665973501E0,3.682971001E-4,1.459121704E-4,-7.735919952E-2
1.670973501E0,-1.363515854E-3,5.649089813E-3,-5.159950256E-2
1.675973501E0,1.884719729E-2,-2.730226517E-2,1.475381851E-2
1.680973501E0,3.656139970E-2,-3.701925278E-2,4.965925217E-2
1.685973501E0,7.732859254E-2,-3.404378891E-2,5.375432968E-2
1.690973501E0,9.423428774E-2,-3.056240082E-2,6.614542007E-2
1.695973501E0,1.048707366E-1,-2.664089203E-2,5.857753754E-2
1.700973501E0,1.026996672E-1,-3.051519394E-2,5.033969879E-2
1.705973501E0,9.407833219E-2,-2.946710587E-2,2.201986313E-2
1.710973501E0,8.101129532E-2,-8.615016937E-3,2.129077911E-3
1.715973501E0,1.104626060E-2,2.558803558E-2,1.999855042E-3
1.720973501E0,-3.411343694E-2,6.689834595E-2,-2.341508865E-2
1.725973501E0,-7.204380631E-2,1.198601723E-1,-3.172731400E-2
1.730973501E0,-9.087976813E-2,1.680583954E-1,-6.705522537E-2
1.735973501E0,-9.099501371E-2,1.876573563E-1,-1.086707115E-1
1.740973501E0,-1.256090701E-1,1.845412254E-1,-1.416983604E-1
1.745973501E0,-1.576058865E-1,1.866116524E-1,-1.771531105E-1
1.750973501E0,-1.610452235E-1,1.539888382E-1,-1.538605690E-1
1.755973501E0,-1.334981918E-1,1.370897293E-1,-1.086668968E-1
1.760973501E0,-9.743726254E-2,1.189336777E-1,-8.742237091E-2
1.765973501E0,-5.402877927E-2,7.792329788E-2,-7.155656815E-2
1.770973501E0,-2.155506611E-2,3.993892670E-2,-8.411312103E-2
1.775973501E0,-1.548364758E-2,-1.851081848E-3,-8.459138870E-2
1.780973501E0,7.673531771E-3,-2.549695969E-2,-7.728767395E-2
1.785973501E0,2.604687214E-2,-6.655740738E-2,-3.825998306E-2
1.790973501E0,6.868416071E-2,-6.922292709E-2,-5.353832245E-2
1.795973501E0,1.190706193E-1,-5.907106400E-2,-7.832336426E-2
1.800973501E0,1.415795982E-1,-4.916095734E-2,-1.771836281E-1
1.805973501E0,1.197202802E-1,-5.178260803E-2,-2.613964081E-1
1.810973501E0,1.025317907E-1,-2.100324631E-2,-2.787494659E-1
1.815973501E0,6.160232425E-2,-3.619194031E-3,-2.555022240E-1
1.820973501E0,-8.458465338E-3,4.952573776E-2,-2.026729584E-1
1.825973501E0,-5.665665865E-2,8.227682114E-2,-1.392807961E-1
1.830973501E0,-8.164918423E-2,9.798431396E-2,-8.782863617E-2
1.835973501E0,-9.362518787E-2,9.488105774E-2,-3.946971893E-2
1.840973501E0,-7.504940033E-2,1.004467010E-1,2.048587799E-2
1.845973501E0,-7.218500972E-2,9.082508087E-2,9.670305252E-2
1.850973501E0,-7.251811028E-2,8.668851852E-2,1.506905556E-1
1.855973501E0,-8.841186762E-2,6.301784515E-2,1.817259789E-1
1.860973501E0,-4.752740264E-2,1.965379715E-2,2.170343399E-1
1.865973501E0,-2.827173471E-2,-1.840114594E-3,2.266421318E-1
1.870973501E0,-2.374804020E-2,-9.491920471E-3,2.102274895E-1
1.875973501E0,-4.572302103E-2,-1.103448868E-2,1.534881592E-1
1.880973501E0,-5.651044846E-2,-9.597301483E-3,1.182761192E-1
1.885973501E0,-4.530957341E-2,-1.908349991E-2,5.685949326E-2
1.890973501E0,-3.853040934E-2,4.529953003E-5,3.737974167E-2
1.895973501E0,4.352927208E-4,2.371311188E-3,4.184198380E-2
1.900973501E0,6.579726934E-3,9.010791779E-3,7.569503784E-2
1.905973501E0,-8.747488260E-3,2.571535110E-2,7.534646988E-2
1.910973501E0,1.667457819E-2,4.201698303E-2,5.100440979E-2
1.915973501E0,5.799531937E-4,5.791187286E-2,1.447677612E-2
1.920973501E0,-1.127508283E-2,6.747627258E-2,8.008003235E-3
1.925973501E0,-2.106004953E-2,7.078456879E-2,8.085727692E-3
1.930973501E0,-2.430015802E-2,7.019567490E-2,2.615404129E-2
1.935973501E0,-3.718611598E-2,7.255315781E-2,1.355981827E-2
1.940973501E0,-4.022160172E-2,5.156326294E-2,1.004219055E-3
1.945973501E0,-2.231130004E-2,4.901409149E-2,-5.253791809E-2
1.950973501E0,-3.412446380E-2,2.931165695E-2,-1.018695831E-1
1.955973501E0,-9.609648585E-2,2.348566055E-2,-1.385097504E-1
1.960973501E0,-1.356481612E-1,3.474950790E-2,-1.398344040E-1
1.965973501E0,-1.442526281E-1,3.252029419E-2,-1.129903793E-1
1.970973501E0,-1.191101372E-1,3.050613403E-2,-6.812047958E-2
1.975973501E0,-8.059188724E-2,1.552009583E-2,-5.357789993E-2
1.980973501E0,-6.084474921E-2,3.316402435E-3,-6.729030609E-2
1.985973501E0,-2.420133352E-2,-1.349544525E-2,-1.025857925E-1
1.990973501E0,1.385757327E-2,-3.557491302E-2,-6.800413132E-2
1.995973501E0,7.261207700E-2,-2.900695801E-2,-5.225038528E-2
2.000973501E0,1.289519817E-1,-3.050041199E-2,-4.993724823E-2
2.005973501E0,1.443298906E-1,-2.906751633E-2,-8.348989487E-2
2.010973501E0,1.574787498E-1,-4.361009598E-2,-1.263103485E-1
2.015973501E0,1.661380082E-1,-3.559207916E-2,-1.550703049E-1
2.020973501E0,1.466438025E-1,-8.148193359E-3,-1.877450943E-1
2.025973501E0,1.198591739E-1,1.103687286E-2,-1.886692047E-1
2.030973501E0,7.510609925E-2,3.629302979E-2,-2.060160637E-1
2.035973501E0,1.965790987E-2,5.108165741E-2,-1.999850273E-1
2.040973501E0,-3.650867939E-2,6.273603439E-2,-1.537370682E-1
2.045973501E0,-9.185624123E-2,7.622337341E-2,-1.064524651E-1
2.050973501E0,-1.408141851E-1,8.905506134E-2,-2.457904816E-2
2.055973501E0,-1.907173693E-1,1.258015633E-1,6.661844254E-2
2.060973501E0,-1.863645315E-1,1.234130859E-1,1.479926109E-1
2.065973501E0,-1.700424254E-1,1.251363754E-1,1.896800995E-1
2.070973501E0,-1.419453025E-1,1.011524200E-1,1.793456078E-1
2.075973501E0,-9.131661057E-2,7.115364075E-2,1.510028839E-1
2.080973501E0,-7.961854339E-2,6.974172592E-2,1.610627174E-1
2.085973501E0,-7.581979036E-3,6.167364120E-2,1.875486374E-1
2.090973501E0,2.968353033E-2,5.775308609E-2,1.600861549E-1
2.095973501E0,6.934610009E-2,3.623914719E-2,1.129264832E-1
2.100973501E0,9.543414414E-2,2.373504639E-2,4.641914368E-2
2.105973501E0,9.984765947E-2,2.070426941E-3,-1.644039154E-2
2.110973501E0,7.090409100E-2,6.083488464E-3,-4.908847809E-2
2.115973501E0,3.959241509E-2,1.921129227E-2,-8.974075317E-3
2.120973501E0,5.424669385E-2,3.258991241E-2,2.891540527E-2
2.125973501E0,3.961747885E-2,5.745601654E-2,6.010627747E-2
2.130973501E0,2.358555794E-2,5.996847153E-2,7.496261597E-2
2.135973501E0,-2.353686094E-2,6.449222565E-2,1.157975197E-1
2.140973501E0,-4.720684886E-2,5.663061142E-2,1.610546112E-1
2.145973501E0,-4.107809067E-2,8.711767197E-2,1.736264229E-1
2.150973501E0,-3.055676818E-2,7.197284698E-2,1.817898750E-1
2.155973501E0,5.414038897E-3,4.443740845E-2,1.708312035E-1
2.160973501E0,3.063336015E-2,2.081298828E-2,1.334199905E-1
2.165973501E0,4.548755288E-2,7.807731628E-3,1.054687500E-1
2.170973501E0,4.717217386E-2,7.478237152E-3,5.281639099E-2
2.175973501E0,2.588039637E-2,-5.245208740E-5,2.712297440E-2
2.180973501E0,-1.171427965E-2,-3.016710281E-2,2.427768707E-2
2.185973501E0,2.200335264E-3,-2.445125580E-2,-8.843421936E-3
2.190973501E0,1.228937507E-2,-1.033687592E-2,7.945537567E-3
2.195973501E0,1.208397746E-2,-1.906585693E-2,-6.927967072E-3
2.200973501E0,-5.559682846E-3,-4.305648804E-2,-9.189128876E-3
2.205973501E0,-1.016139984E-3,-4.507017136E-2,-6.787300110E-3
2.210973501E0,4.986912012E-3,-4.626417160E-2,-2.292203903E-2
2.215973501E0,1.317715645E-2,-3.425741196E-2,-3.614568710E-2
2.220973501E0,4.166187346E-2,-2.202129364E-2,-7.579183578E-2
2.225973501E0,6.072588265E-2,-2.490997314E-3,-9.450387955E-2
2.230973501E0,9.607683122E-2,3.263950348E-3,-1.026411057E-1
2.235973501E0,1.160797626E-1,2.149581909E-3,-1.046404839E-1
2.240973501E0,1.362651885E-1,-1.435661316E-2,-8.477258682E-2
2.245973501E0,1.194980443E-1,-2.070140839E-2,-6.269264221E-2
2.250973501E0,8.567444980E-2,-6.794929504E-3,-5.401277542E-2
2.255973501E0,1.799449325E-2,2.475166321E-2,-1.353645325E-2
2.260973501E0,-3.116878867E-2,4.257392883E-2,2.099418640E-2
2.265973501E0,-6.419533491E-2,3.730916977E-2,5.177068710E-2
2.270973501E0,-5.165272951E-2,1.846075058E-2,5.164623260E-2
2.275973501E0,-5.298945308E-2,3.077030182E-3,3.608131409E-2
2.280973501E0,-4.808920622E-2,-2.306175232E-2,9.924411774E-3
2.285973501E0,-5.976703763E-2,-1.410770416E-2,-2.228450775E-2
2.290973501E0,-3.255355358E-2,-8.259296417E-3,-9.430885315E-3
2.295973501E0,-2.268627286E-2,-6.452083588E-3,3.189754486E-2
2.300973501E0,1.543340087E-2,-9.975433350E-3,4.171133041E-2
2.305973501E0,2.238535881E-2,-1.013040543E-2,1.726627350E-2
2.310973501E0,3.491713107E-2,-8.292198181E-4,-2.919578552E-2
2.315973501E0,3.993345797E-2,-3.921031952E-3,-3.310298920E-2
2.320973501E0,6.138478220E-2,3.428220749E-2,5.449771881E-3
2.325973501E0,8.357961476E-2,4.896879196E-2,2.898406982E-2
2.330973501E0,7.957983017E-2,4.984903336E-2,3.591585159E-2
2.335973501E0,6.364901364E-2,6.282234192E-2,5.510520935E-2
2.340973501E0,7.257457078E-2,5.776739120E-2,6.426239014E-2
2.345973501E0,7.837554812E-2,4.201889038E-2,7.478570938E-2
2.350973501E0,8.472158015E-2,1.793766022E-2,7.842683792E-2
2.355973501E0,7.873341441E-2,1.076030731E-2,9.580516815E-2
2.360973501E0,5.805164576E-2,5.078315735E-4,8.517313004E-2
2.365973501E0,7.349848747E-4,-8.173942566E-3,8.696603775E-2
2.370973501E0,-9.020204842E-2,-6.217956543E-3,1.100249290E-1
2.375973501E0,-1.511105895E-1,2.001714706E-2,1.550989151E-1
2.380973501E0,-1.730570942E-1,4.393815994E-2,1.696381569E-1
2.385973501E0,-1.951609105E-1,3.861665726E-2,1.331505775E-1
2.390973501E0,-1.828807145E-1,3.185653687E-2,1.454148293E-1
2.395973501E0,-1.638073027E-1,1.302099228E-2,1.107916832E-1
2.400973501E0,-9.642106295E-2,2.534866333E-3,1.072549820E-1
2.405973501E0,-2.999353409E-2,-2.647733688E-2,1.178541183E-1
2.410973501E0,1.461207867E-2,-3.675699234E-2,8.528566360E-2
2.415973501E0,3.474684060E-2,-5.257701874E-2,3.253984451E-2
2.420973501E0,7.404327393E-3,-6.207847595E-2,2.870321274E-2
2.425973501E0,3.034143150E-2,-4.678916931E-2,-4.159927368E-3
2.430973501E0,4.723602533E-2,-7.968902588E-2,-5.183839798E-2
2.435973501E0,3.135223687E-2,-8.729457855E-2,-6.901454926E-2
2.440973501E0,4.157513380E-2,-6.475925446E-2,-1.136770248E-1
2.445973501E0,3.042955697E-2,-4.250144958E-2,-1.510224342E-1
2.450973501E0,2.867650986E-2,-1.411151886E-2,-1.538949013E-1
2.455973501E0,6.553564966E-2,-4.206562042E-2,-1.650123596E-1
2.460973501E0,4.145988822E-2,-2.248477936E-2,-1.864171028E-1
2.465973501E0,-2.076923847E-3,-3.951025009E-2,-1.777715683E-1
2.470973501E0,-3.765222430E-2,-1.890897751E-2,-1.492700577E-1
2.475973501E0,-2.515965700E-2,3.305912018E-3,-9.108495712E-2
2.480973501E0,7.554337382E-3,1.327705383E-2,-3.766441345E-2
2.485973501E0,1.110014319E-2,-9.530067444E-3,-5.340576172E-3
2.490973501E0,1.379260421E-2,-2.675151825E-2,1.637983322E-2
2.495973501E0,3.779377043E-2,-2.954578400E-2,3.722238541E-2
2.500973501E0,5.238971114E-2,-2.148246765E-2,9.210109711E-2
2.505973501E0,6.264403462E-2,-1.613187790E-2,1.267194748E-1
2.510973501E0,8.355157077E-2,-1.805543900E-2,1.338372231E-1
2.515973501E0,7.708419114E-2,-3.904724121E-2,1.059546471E-1
2.520973501E0,6.962783635E-2,-5.001163483E-2,6.455087662E-2
2.525973501E0,6.827163696E-2,-3.461313248E-2,3.660583496E-2
2.530973501E0,6.338791549E-2,-6.620883942E-3,1.823759079E-2
2.535973501E0,3.404429555E-2,-3.271579742E-3,-3.109693527E-2
2.540973501E0,-3.243178129E-3,2.172517776E-2,-6.613779068E-2
2.545973501E0,-2.160865068E-2,5.655765533E-2,-1.007814407E-1
2.550973501E0,-1.014293730E-2,7.185077667E-2,-1.413512230E-1
2.555973501E0,-1.864284277E-3,6.499195099E-2,-1.789712906E-1
2.560973501E0,4.286319017E-4,3.047657013E-2,-1.784448624E-1
2.565973501E0,-2.427855134E-2,3.152656555E-2,-1.488609314E-1
2.570973501E0,-1.781366765E-2,3.191900253E-2,-8.256340027E-2
2.575973501E0,-4.234567285E-3,2.413892746E-2,-3.406667709E-2
2.580973501E0,7.496044040E-3,1.639842987E-2,6.494522095E-4
2.585973501E0,1.449435949E-3,2.738475800E-3,1.750373840E-2
2.590973501E0,-1.528620720E-2,1.053380966E-2,5.105352402E-2
2.595973501E0,1.243659854E-2,1.450920105E-2,5.455827713E-2
2.600973501E0,2.938506007E-2,-5.080223083E-3,8.636856079E-2
2.605973501E0,4.319067299E-2,-2.244281769E-2,9.542846680E-2
2.610973501E0,3.099930286E-2,-4.071807861E-2,1.073074341E-1
2.615973501E0,4.044185579E-2,-5.289649963E-2,1.399502754E-1
2.620973501E0,6.692569703E-2,-4.695320129E-2,1.565008163E-1
2.625973501E0,7.914589345E-2,-3.581523895E-2,1.329574585E-1
2.630973501E0,8.109407872E-2,-3.319263458E-2,8.500766754E-2
2.635973501E0,6.415188313E-2,-3.979682922E-2,1.238012314E-2
2.640973501E0,5.158264935E-2,-2.221441269E-2,-4.898738861E-2
2.645973501E0,2.890208364E-2,-5.672931671E-3,-7.537174225E-2
2.650973501E0,1.145152748E-2,9.223937988E-3,-9.464883804E-2
2.655973501E0,5.620032549E-3,2.873992920E-2,-6.540870667E-2
2.660973501E0,1.384854317E-2,4.029130936E-2,-8.021879196E-2
2.665973501E0,8.426383138E-3,3.142833710E-2,-9.440755844E-2
2.670973501E0,5.988284945E-3,1.944637299E-2,-1.113042831E-1
2.675973501E0,1.926273108E-3,-3.016471863E-3,-9.158134460E-2
2.680973501E0,-7.719278336E-3,-2.493381500E-3,-6.044435501E-2
2.685973501E0,-3.559227288E-2,7.724761963E-3,-2.448415756E-2
2.690973501E0,-6.409300864E-2,3.160476685E-3,2.944183350E-2
2.695973501E0,-9.312257171E-2,-5.030632019E-4,8.997964859E-2
2.700973501E0,-7.310767472E-2,1.050281525E-2,1.686100960E-1
2.705973501E0,-6.393289566E-2,-1.912069321E-2,2.088842392E-1
2.710973501E0,-5.380718410E-2,-6.650447845E-2,2.220501900E-1
2.715973501E0,-1.904700696E-2,-7.988166809E-2,2.045621872E-1
2.720973501E0,1.792220771E-2,-8.715152740E-2,1.529016495E-1
2.725973501E0,6.323321909E-2,-6.619310379E-2,1.328253746E-1
2.730973501E0,1.176188067E-1,-4.613161087E-2,8.992624283E-2
2.735973501E0,1.299193054E-1,-4.402923584E-2,5.433893204E-2
2.740973501E0,1.317629218E-1,-3.160524368E-2,3.958797455E-2
2.745973501E0,1.197188720E-1,-1.320838928E-2,-3.139972687E-3
2.750973501E0,1.030017138E-1,7.852554321E-3,-5.365562439E-2
2.755973501E0,7.895667106E-2,2.470541000E-2,-1.055226326E-1
2.760973501E0,3.692325950E-2,3.527259827E-2,-1.537365913E-1
2.765973501E0,4.247218370E-3,3.426551819E-2,-1.713571548E-1
2.770973501E0,1.667511463E-2,3.463792801E-2,-1.747422218E-1
2.775973501E0,2.104963362E-2,3.319263458E-2,-1.987566948E-1
2.780973501E0,5.027011037E-3,2.182054520E-2,-2.077031136E-1
2.785973501E0,-2.460670471E-2,1.774549484E-2,-1.951646805E-1
2.790973501E0,-8.281973004E-2,9.669780731E-3,-1.497941017E-1
2.795973501E0,-1.421622634E-1,3.323364258E-2,-1.136670113E-1
2.800973501E0,-1.787291914E-1,5.703163147E-2,-6.195354462E-2
2.805973501E0,-1.470160484E-1,5.742406845E-2,2.484321594E-4
2.810973501E0,-9.904366732E-2,3.806447983E-2,3.424549103E-2
2.815973501E0,-4.734724760E-2,-1.629257202E-2,2.720737457E-2
2.820973501E0,1.417908072E-2,-5.742406845E-2,-2.585554123E-2
2.825973501E0,7.150963694E-2,-8.467006683E-2,-7.547426224E-2
2.830973501E0,1.168960929E-1,-9.967231750E-2,-1.117420197E-1
2.835973501E0,1.009795815E-1,-1.008267403E-1,-1.072759628E-1
2.840973501E0,1.119725853E-1,-1.021299362E-1,-1.178112030E-1
2.845973501E0,1.045736969E-1,-9.187126160E-2,-8.566808701E-2
2.850973501E0,6.354440749E-2,-9.105825424E-2,-8.740568161E-2
2.855973501E0,1.887337863E-2,-7.067537308E-2,-8.648490906E-2
2.860973501E0,-1.418982446E-2,-6.030273438E-2,-4.373550415E-2
2.865973501E0,-5.092722178E-2,-3.908061981E-2,6.060600281E-4
2.870973501E0,-8.719326556E-2,-3.046989441E-2,5.926513672E-2
2.875973501E0,-1.225913912E-1,-3.096103668E-3,1.209931374E-1
2.880973501E0,-1.141912788E-1,1.953506470E-2,1.769251823E-1
2.885973501E0,-7.498903573E-2,4.722547531E-2,2.049036026E-1
2.890973501E0,-5.213564634E-2,6.214904785E-2,2.121582031E-1
2.895973501E0,-4.181364179E-2,9.669208527E-2,2.426614761E-1
2.900973501E0,1.572445035E-3,8.870887756E-2,2.131595612E-1
2.905973501E0,1.136368513E-2,9.019851685E-2,1.791286469E-1
2.910973501E0,2.324938774E-2,8.085107803E-2,1.723866463E-1
2.915973501E0,3.079497814E-2,6.142616272E-2,1.549611092E-1
2.920973501E0,2.004255354E-2,5.504846573E-2,1.257896423E-1
2.925973501E0,-3.331270814E-2,6.102371216E-2,9.510421753E-2
2.930973501E0,-4.117220640E-2,7.006502151E-2,6.208801270E-2
2.935973501E0,-5.702982843E-2,6.116771698E-2,2.577781677E-2
2.940973501E0,-6.980371475E-2,4.106283188E-2,-1.666736603E-2
2.945973501E0,-5.316390097E-2,1.426410675E-2,-2.548360825E-2
2.950973501E0,-2.060893178E-2,-1.561737061E-2,-6.317329407E-2
2.955973501E0,-4.132032394E-3,-3.039789200E-2,-6.699228287E-2
2.960973501E0,3.598764539E-3,-4.254102707E-2,-5.410575867E-2
2.965973501E0,3.303644061E-2,-6.332302094E-2,-4.318046570E-2
2.970973501E0,5.511266738E-2,-8.393239975E-2,-5.084419250E-2
2.975973501E0,7.675587386E-2,-8.190298080E-2,-5.789327621E-2
2.980973501E0,8.660951257E-2,-9.385871887E-2,-3.017997742E-2
2.985973501E0,1.022720784E-1,-9.001874924E-2,-2.368736267E-2
2.990973501E0,1.263678223E-1,-6.901788712E-2,-2.704715729E-2
2.995973501E0,9.935998917E-2,-6.312131882E-2,-2.247524261E-2
3.000973501E0,6.705999374E-2,-5.237722397E-2,-3.887748718E-2
3.005973501E0,-4.853889346E-3,-3.790855408E-2,-1.425361633E-2
3.010973501E0,-4.893869162E-2,-5.145549774E-3,-2.151966095E-2
3.015973501E0,-9.384761751E-2,2.366733551E-2,-2.125835419E-2
3.020973501E0,-1.250541061E-1,2.787876129E-2,-3.983306885E-2
3.025973501E0,-8.926574886E-2,2.744579315E-2,-6.818628311E-2
3.030973501E0,-5.758328736E-2,-5.722045898E-5,-1.085309982E-1
3.035973501E0,-3.514449298E-2,-2.985477448E-2,-1.212105751E-1
3.040973501E0,-1.302030683E-2,-2.710628510E-2,-8.631896973E-2
3.045973501E0,-2.332194149E-2,-1.200151443E-2,-2.457809448E-2
3.050973501E0,-4.584333301E-2,-2.162694931E-2,1.919412613E-2
3.055973501E0,-5.885221064E-2,-4.109525681E-2,4.318857193E-2
3.060973501E0,-2.653929591E-2,-4.292678833E-2,2.515935898E-2
3.065973501E0,2.518787980E-2,-5.050468445E-2,3.404140472E-2
3.070973501E0,6.612553447E-2,-5.034923553E-2,-5.706310272E-3
3.075973501E0,9.742008150E-2,-5.517148972E-2,-5.212306976E-2
3.080973501E0,1.164869219E-1,-7.254838943E-2,-9.601068497E-2
3.085973501E0,9.054907411E-2,-8.243846893E-2,-1.551909447E-1
3.090973501E0,3.060685098E-2,-7.568359375E-2,-1.604332924E-1
3.095973501E0,-1.396176219E-2,-3.309822083E-2,-1.445865631E-1
3.100973501E0,-8.553116024E-2,4.101371765E-2,-1.229085922E-1
3.105973501E0,-1.346005201E-1,8.137702942E-2,-9.552478790E-2
3.110973501E0,-1.527633816E-1,7.681035995E-2,-1.024179459E-1
3.115973501E0,-1.343398541E-1,6.819105148E-2,-1.022386551E-1
3.120973501E0,-7.736098766E-2,4.840517044E-2,-5.981492996E-2
3.125973501E0,-2.730455995E-2,5.142927170E-2,8.377075195E-3
3.130973501E0,-1.858095825E-2,3.655672073E-2,7.341289520E-2
3.135973501E0,-2.294674516E-2,4.549121857E-2,1.368007660E-1
3.140973501E0,1.661956310E-2,4.123210907E-2,1.958537102E-1
3.145973501E0,6.611239910E-2,2.331829071E-2,2.300176620E-1
3.150973501E0,9.842587262E-2,3.741264343E-3,2.466678619E-1
3.155973501E0,1.277225763E-1,-9.986400604E-3,2.603278160E-1
3.160973501E0,1.414167732E-1,-1.355648041E-2,2.628087997E-1
3.165973501E0,1.496613771E-1,-2.482032776E-2,2.470455170E-1
3.170973501E0,8.698354661E-2,-5.676746368E-3,2.300648689E-1
3.175973501E0,2.870132029E-2,9.461879730E-3,2.250084877E-1
3.180973501E0,1.813270152E-3,2.855443954E-2,2.091255188E-1
3.185973501E0,6.963312626E-4,2.964258194E-2,1.793684959E-1
3.190973501E0,8.334472775E-3,2.625751495E-2,1.102385521E-1
3.195973501E0,3.179318458E-2,2.573490143E-2,3.646421432E-2
3.200973501E0,2.553604543E-2,3.434324265E-2,-1.973676682E-2
3.205973501E0,4.327088594E-3,2.664518356E-2,-1.081881523E-1
3.210973501E0,-5.690559745E-3,5.149507523E-2,-1.735324860E-1
3.215973501E0,2.990126610E-3,6.424140930E-2,-2.220807076E-1
3.220973501E0,-2.768501639E-3,6.609439850E-2,-2.473735809E-1
3.225973501E0,-2.633441240E-2,5.056524277E-2,-2.459921837E-1
3.230973501E0,-5.380187184E-2,5.190372467E-2,-2.469286919E-1
3.235973501E0,-5.686577410E-2,4.364871979E-2,-2.075376511E-1
3.240973501E0,-3.902440518E-2,2.842140198E-2,-1.575131416E-1
3.245973501E0,-1.934241503E-2,1.379013062E-2,-8.101129532E-2
3.250973501E0,-2.208323777E-2,-8.262634277E-3,-8.255481720E-3
3.255973501E0,-2.823578566E-2,-1.210689545E-2,4.932594299E-2
3.260973501E0,-2.377134562E-2,-1.269102097E-2,1.002759933E-1
3.265973501E0,-9.463310242E-3,-3.835916519E-2,1.427383423E-1
3.270973501E0,3.997751325E-2,-5.016326904E-2,1.974449158E-1
3.275973501E0,7.941523194E-2,-6.194686890E-2,2.107663155E-1
3.280973501E0,1.192434058E-1,-8.130121231E-2,1.908078194E-1
3.285973501E0,1.212429777E-1,-8.762407303E-2,1.627268791E-1
3.290973501E0,9.296946973E-2,-7.564544678E-2,1.379089355E-1
3.295973501E0,3.335658461E-2,-5.918359756E-2,1.170902252E-1
3.300973501E0,1.171785593E-2,-2.099037170E-2,1.081409454E-1
3.305973501E0,5.510881543E-3,1.294517517E-2,7.657814026E-2
3.310973501E0,-9.382143617E-4,6.456375122E-4,3.768587112E-2
3.315973501E0,1.378769428E-2,1.338958740E-3,-3.177642822E-2
3.320973501E0,3.326393664E-2,-1.628017426E-2,-1.458973885E-1
3.325973501E0,5.917490646E-2,-3.993749619E-2,-2.028546333E-1
3.330973501E0,6.071661785E-2,-2.108144760E-2,-2.549386024E-1
3.335973501E0,3.140541911E-2,-1.981544495E-2,-2.766509056E-1
3.340973501E0,-1.586985588E-2,-1.990509033E-2,-2.621040344E-1
3.345973501E0,-5.757354200E-3,-1.577091217E-2,-2.262167931E-1
3.350973501E0,-1.540773362E-2,1.283788681E-2,-1.846904755E-1
3.355973501E0,-9.253501892E-2,4.134035110E-2,-1.506152153E-1
3.360973501E0,-1.643208265E-1,5.715274811E-2,-8.144521713E-2
3.365973501E0,-1.658819914E-1,9.944200516E-2,1.261186600E-2
3.370973501E0,-1.206501424E-1,8.225631714E-2,1.915693283E-2
3.375973501E0,-1.133761406E-1,5.271387100E-2,2.626895905E-3
3.380973501E0,-5.044762045E-2,4.538393021E-2,3.444004059E-2
3.385973501E0,2.373529226E-2,3.579187393E-2,7.801532745E-2
3.390973501E0,6.890660524E-2,3.867149353E-3,9.222602844E-2
3.395973501E0,7.455191761E-2,-2.970504761E-2,9.563589096E-2
3.400973501E0,7.967143506E-2,-5.695772171E-2,1.049680710E-1
3.405973501E0,5.552981049E-2,-4.844379425E-2,1.288475990E-1
3.410973501E0,1.752538979E-2,-3.017997742E-2,1.473464966E-1
3.415973501E0,-4.920225590E-2,-1.548671722E-2,1.412153244E-1
3.420973501E0,-1.034515053E-1,-1.839256287E-2,1.120967865E-1
3.425973501E0,-1.142448038E-1,-1.232004166E-2,9.095525742E-2
3.430973501E0,-7.104223222E-2,-1.415252686E-3,7.584810257E-2
3.435973501E0,-2.775157988E-2,9.238243103E-3,7.866954803E-2
3.440973501E0,-2.365291864E-2,1.336336136E-2,6.525373459E-2
3.445973501E0,-1.093917340E-2,3.681182861E-4,-9.675025940E-3
3.450973501E0,-1.266983151E-2,8.619785309E-3,-8.804941177E-2
3.455973501E0,-4.415534437E-3,2.676534653E-2,-1.383280754E-1
3.460973501E0,9.997643530E-3,5.721807480E-2,-1.477708817E-1
3.465973501E0,4.191020876E-2,7.163524628E-2,-1.206493378E-1
3.470973501E0,2.597423643E-2,8.077764511E-2,-1.057686806E-1
3.475973501E0,-2.953080833E-2,7.710456848E-2,-9.203386307E-2
3.480973501E0,-5.852290243E-2,9.627199173E-2,-6.322574615E-2
3.485973501E0,-9.036143869E-2,1.226549149E-1,-5.001926422E-2
3.490973501E0,-9.849921614E-2,1.176476479E-1,-2.315807343E-2
3.495973501E0,-8.575154841E-2,7.337093353E-2,1.494693756E-2
3.500973501E0,-4.105958343E-2,1.862144470E-2,6.856632233E-2
3.505973501E0,4.160360247E-2,-7.705211639E-3,1.090116501E-1
3.510973501E0,7.132945210E-2,-3.207969666E-2,1.410613060E-1
3.515973501E0,7.062316686E-2,-4.118156433E-2,1.383695602E-1
3.520973501E0,4.337356985E-2,-6.068468094E-2,1.198210716E-1
3.525973501E0,1.021181792E-2,-7.127904892E-2,8.906173706E-2
3.530973501E0,-1.490496099E-3,-6.621646881E-2,9.061908722E-2
3.535973501E0,1.314029098E-3,-3.461456299E-2,7.372426987E-2
3.540973501E0,1.074195653E-2,-3.074359894E-2,6.069517136E-2
3.545973501E0,-2.663718164E-2,-4.050827026E-2,3.161907196E-3
3.550973501E0,-1.897273213E-2,-3.939819336E-2,-3.692007065E-2
3.555973501E0,4.035502672E-3,-2.552080154E-2,-5.351495743E-2
3.560973501E0,1.167574525E-2,-2.169275284E-2,-6.451129913E-2
3.565973501E0,8.971914649E-4,-2.044582367E-2,-4.061174393E-2
3.570973501E0,-1.527245343E-2,-1.410102844E-2,-1.663208008E-2
3.575973501E0,-6.847441196E-3,-2.234172821E-2,3.083324432E-2
3.580973501E0,-5.783408880E-3,-2.095699310E-3,-1.066064835E-2
3.585973501E0,-2.004764974E-3,-8.607864380E-3,-5.430841446E-2
3.590973501E0,4.897728562E-3,-5.886554718E-3,-1.079134941E-1
3.595973501E0,-1.311376691E-4,-6.067276001E-3,-1.151700020E-1
3.600973501E0,6.735324860E-4,-2.231121063E-3,-6.965446472E-2
3.605973501E0,2.498299628E-2,-1.112937927E-3,-4.479217529E-2
3.610973501E0,3.312910348E-2,-2.553319931E-2,-3.964090347E-2
3.615973501E0,-6.144195795E-4,-3.833293915E-2,-5.686044693E-2
3.620973501E0,-5.757577717E-3,-5.434465408E-2,-6.938362122E-2
3.625973501E0,-6.348907948E-3,-4.934740067E-2,-5.978631973E-2
3.630973501E0,-1.778416336E-2,-5.829381943E-2,-7.172393799E-2
3.635973501E0,-2.618810534E-2,-6.561660767E-2,-8.120822906E-2
3.640973501E0,-4.996448755E-2,-3.293085098E-2,-6.457424164E-2
3.645973501E0,-4.934470356E-2,-1.633310318E-2,-7.403993607E-2
3.650973501E0,-9.834188223E-2,-3.936767578E-3,-8.061647415E-2
3.655973501E0,-1.523323506E-1,1.272964478E-2,-7.080221176E-2
3.660973501E0,-1.620959938E-1,2.141857147E-2,-3.292751312E-2
3.665973501E0,-1.384655088E-1,3.183364868E-2,3.022193909E-2
3.670973501E0,-1.130521446E-1,4.440927505E-2,4.615211487E-2
3.675973501E0,-5.753569305E-2,3.653335571E-2,4.061365128E-2
3.680973501E0,-3.289021552E-2,4.007196426E-2,5.876302719E-2
3.685973501E0,3.368765116E-3,3.361177444E-2,5.361509323E-2
3.690973501E0,1.077950746E-2,2.867460251E-2,4.068136215E-2
3.695973501E0,-6.900131702E-4,2.959489822E-2,5.995082855E-2
3.700973501E0,3.868654370E-3,4.794645309E-2,6.756973267E-2
3.705973501E0,3.079697490E-3,3.870344162E-2,8.976364136E-2
3.710973501E0,2.180933952E-3,5.517005920E-2,3.955221176E-2
3.715973501E0,-1.651242375E-3,2.770137787E-2,2.480411530E-2
3.720973501E0,-7.310822606E-3,-1.593923569E-2,1.081180573E-2
3.725973501E0,-2.411137521E-2,-1.844072342E-2,5.474567413E-2
3.730973501E0,-2.160602808E-2,7.028579712E-3,9.332180023E-2
3.735973501E0,-2.154262364E-2,2.116823196E-2,1.033644676E-1
3.740973501E0,-1.260784268E-2,4.285812378E-3,1.212854385E-1
3.745973501E0,-3.674177825E-2,-1.700210571E-2,9.571027756E-2
3.750973501E0,-4.562436044E-2,-2.286386490E-2,5.901241302E-2
3.755973501E0,1.074044406E-2,-2.176284790E-2,5.352926254E-2
3.760973501E0,7.081907988E-2,-1.570653915E-2,4.576778412E-2
3.765973501E0,1.002206951E-1,-1.865339279E-2,1.941442490E-2
3.770973501E0,1.080803424E-1,-3.077173233E-2,-1.827096939E-2
3.775973501E0,8.977871388E-2,-4.756069183E-2,-5.114746094E-2
3.780973501E0,6.369697303E-2,-3.598117828E-2,-6.015110016E-2
3.785973501E0,4.855848104E-2,-4.720687866E-3,-1.016125679E-1
3.790973501E0,2.438607067E-2,1.461648941E-2,-1.329250336E-1
3.795973501E0,-1.688787341E-2,1.201677322E-2,-1.327381134E-1
3.800973501E0,-3.630201519E-2,-2.154350281E-3,-9.675884247E-2
3.805973501E0,-4.713985324E-2,-6.245136261E-3,-7.654666901E-2
3.810973501E0,-3.939723969E-2,1.297426224E-2,-2.775526047E-2
3.815973501E0,-3.222849965E-2,2.164030075E-2,-2.603149414E-2
3.820973501E0,-2.559651434E-2,1.230287552E-2,-1.928377151E-2
3.825973501E0,-6.801563501E-2,7.137298584E-3,-4.352092743E-3
3.830973501E0,-1.055865884E-1,1.845884323E-2,2.519035339E-2
3.835973501E0,-9.035742283E-2,4.228210449E-2,8.061504364E-2
3.840973501E0,-5.110777915E-2,6.375169754E-2,1.200780869E-1
3.845973501E0,-4.505616426E-2,1.747655869E-2,1.374573708E-1
3.850973501E0,2.843439579E-4,-7.638454437E-3,1.901059151E-1
3.855973501E0,4.371909052E-2,-2.173137665E-2,2.377352715E-1
3.860973501E0,7.081621885E-2,-2.824163437E-2,2.629632950E-1
3.865973501E0,9.457188845E-2,-2.389240265E-2,2.353949547E-1
3.870973501E0,1.225083917E-1,-4.433917999E-2,1.543173790E-1
3.875973501E0,1.105632037E-1,-7.200193405E-2,5.129480362E-2
3.880973501E0,8.427335322E-2,-8.165168762E-2,1.418828964E-2
3.885973501E0,9.215515852E-2,-4.191303253E-2,4.634857178E-3
3.890973501E0,8.770033717E-2,-2.041244507E-2,-1.037836075E-2
3.895973501E0,8.049613237E-2,-1.569747925E-2,-4.080724716E-2
3.900973501E0,7.655232400E-2,-2.035665512E-2,-5.555009842E-2
3.905973501E0,6.676197797E-2,-1.925706863E-2,-9.179639816E-2
3.910973501E0,2.879189700E-2,-1.948356628E-3,-1.260590553E-1
3.915973501E0,-2.950024605E-2,2.908945084E-2,-1.528868675E-1
3.920973501E0,-8.621150255E-2,5.209207535E-2,-1.282153130E-1
3.925973501E0,-1.515535712E-1,6.750631332E-2,-8.486747742E-2
3.930973501E0,-1.837746948E-1,8.857631683E-2,-1.544475555E-2
3.935973501E0,-1.833625287E-1,9.380865097E-2,4.090213776E-2
3.940973501E0,-1.534323096E-1,9.222555161E-2,6.271028519E-2
3.945973501E0,-8.560685813E-2,7.198381424E-2,5.531072617E-2
3.950973501E0,-5.087968707E-2,5.277967453E-2,-1.508188248E-2
3.955973501E0,-1.479774714E-2,2.163124084E-2,-7.794332504E-2
3.960973501E0,3.324305266E-2,-7.456779480E-3,-8.019256592E-2
3.965973501E0,7.437383384E-2,-2.141809464E-2,-6.036424637E-2
3.970973501E0,1.114751026E-1,-3.457355499E-2,-5.192089081E-2
3.975973501E0,1.502565593E-1,-6.994390488E-2,-6.219339371E-2
3.980973501E0,1.538975090E-1,-9.374046326E-2,-7.250022888E-2
3.985973501E0,1.471151412E-1,-9.447765350E-2,-8.374071121E-2
3.990973501E0,9.994859248E-2,-9.435415268E-2,-5.234432220E-2
3.995973501E0,6.016833335E-2,-6.187152863E-2,1.609325409E-3
4.000973501E0,5.510631204E-2,-3.726720810E-2,2.014923096E-2
4.005973501E0,6.028607488E-2,-2.595949173E-2,1.661157608E-2
4.010973501E0,7.379592955E-2,-6.349086761E-3,-1.141214371E-2
4.015973501E0,8.815798163E-2,6.242275238E-3,-3.907966614E-2
4.020973501E0,6.478677690E-2,3.254413605E-2,-5.968713760E-2
4.025973501E0,4.825563729E-2,6.220197678E-2,-4.519033432E-2
4.030973501E0,5.179511756E-2,9.253215790E-2,-2.323102951E-2
4.035973501E0,4.281874746E-2,1.065897942E-1,-7.549762726E-3
4.040973501E0,1.666954905E-2,1.168069839E-1,-1.545763016E-2
4.045973501E0,1.465032995E-2,9.983587265E-2,1.193332672E-2
4.050973501E0,-1.140590012E-2,1.077723503E-1,6.075620651E-2
4.055973501E0,-3.773231804E-2,1.022429466E-1,1.282649040E-1
4.060973501E0,-2.244955301E-2,6.949234009E-2,2.031331062E-1
4.065973501E0,-1.933784783E-2,2.082967758E-2,2.664852142E-1
4.070973501E0,-1.301372051E-2,-2.429771423E-2,2.948231697E-1
4.075973501E0,-1.419687271E-2,-5.495166779E-2,3.290963173E-1
4.080973501E0,-3.196248412E-2,-1.055421829E-1,3.807296753E-1
4.085973501E0,-6.995210052E-2,-8.738803864E-2,3.605594635E-1
4.090973501E0,-7.258792222E-2,-1.129140854E-1,3.410120010E-1
4.095973501E0,-4.453584552E-2,-1.148929596E-1,2.851247787E-1
4.100973501E0,-3.067998588E-2,-1.226453781E-1,1.800675392E-1
4.105973501E0,-4.761958122E-2,-1.282696724E-1,6.826543808E-2
4.110973501E0,-2.218912542E-2,-1.159243584E-1,-5.181741714E-2
4.115973501E0,-6.622865796E-3,-8.693456650E-2,-1.748628616E-1
4.120973501E0,-9.274035692E-3,-5.236768723E-2,-2.719950676E-1
4.125973501E0,-2.641429007E-2,6.832122803E-3,-3.426098824E-1
4.130973501E0,-1.313169301E-2,4.140090942E-2,-3.864846230E-1
4.135973501E0,3.067135811E-3,3.937530518E-2,-3.981084824E-1
4.140973501E0,-1.597236097E-2,4.636812210E-2,-4.027290344E-1
4.145973501E0,3.730699420E-3,5.506277084E-2,-3.863344193E-1
4.150973501E0,1.612964272E-2,8.378601074E-2,-3.508524895E-1
4.155973501E0,1.834787428E-2,7.584476471E-2,-2.777023315E-1
4.160973501E0,3.292709589E-2,5.133962631E-2,-2.053742409E-1
4.165973501E0,2.965462208E-2,2.164173126E-2,-1.315526962E-1
4.170973501E0,2.633783966E-2,-1.626920700E-2,-6.107664108E-2
4.175973501E0,4.038781673E-2,-3.122377396E-2,1.114416122E-2
4.180973501E0,7.923017442E-2,-2.996110916E-2,7.349777222E-2
4.185973501E0,9.047378600E-2,-6.314754486E-2,1.361722946E-1
4.190973501E0,6.860075891E-2,-7.365465164E-2,1.021704674E-1
4.195973501E0,4.894179851E-2,-6.039285660E-2,1.040616035E-1
4.200973501E0,2.860791981E-2,-4.615449905E-2,8.813047409E-2
4.205973501E0,8.529141545E-3,-2.908086777E-2,8.463239670E-2
4.210973501E0,-6.759837270E-3,-1.145553589E-2,8.656978607E-2
4.215973501E0,-1.321855187E-2,1.322174072E-2,7.390451431E-2
4.220973501E0,-3.182463348E-2,3.299045563E-2,-3.450870514E-3
4.225973501E0,-3.245903552E-2,4.433536530E-2,-6.587839127E-2
4.230973501E0,-3.764140606E-2,7.405614853E-2,-9.520053864E-2
4.235973501E0,-4.292617738E-2,8.424711227E-2,-9.818553925E-2
4.240973501E0,-5.147834122E-2,1.049852371E-1,-1.048431396E-1
4.245973501E0,-5.031101406E-2,1.009984016E-1,-9.838724136E-2
4.250973501E0,-5.862766504E-2,9.770870209E-2,-8.740425110E-2
4.255973501E0,-6.192757189E-2,7.189750671E-2,1.273441315E-2
4.260973501E0,-3.746040165E-2,6.035947800E-2,5.603885651E-2
4.265973501E0,-2.125367522E-3,3.677845001E-2,1.115350723E-1
4.270973501E0,3.699660301E-4,3.473758698E-3,1.381292343E-1
4.275973501E0,3.570199758E-2,-2.217054367E-2,1.222581863E-1
4.280973501E0,8.307856321E-2,-4.151153564E-2,1.026477814E-1
4.285973501E0,7.823431492E-2,-2.942323685E-2,8.144855499E-2
4.290973501E0,5.210216343E-2,-2.372503281E-2,7.289266586E-2
4.295973501E0,5.662178248E-2,-1.342916489E-2,1.300430298E-2
4.300973501E0,3.806665540E-2,5.470752716E-3,-2.683401108E-2
4.305973501E0,1.848940551E-2,1.432657242E-2,-3.974437714E-2
4.310973501E0,7.747232914E-3,2.762365341E-2,-5.876064301E-2
4.315973501E0,-4.397138953E-3,4.543018341E-2,-1.009063721E-1
4.320973501E0,-6.669047475E-2,6.532430649E-2,-1.058354378E-1
4.325973501E0,-6.258276105E-2,7.240772247E-2,-4.571533203E-2
4.330973501E0,-4.986295104E-2,6.598854065E-2,-1.127672195E-2
4.335973501E0,-3.948557377E-2,5.733680725E-2,1.479291916E-2
4.340973501E0,-2.299620211E-2,3.347635269E-2,2.164363861E-2
4.345973501E0,3.320083022E-3,3.373861313E-2,2.690267563E-2
4.350973501E0,1.403135061E-2,2.722215652E-2,9.273529053E-3
4.355973501E0,-4.479026794E-2,2.957439423E-2,2.239036560E-2
4.360973501E0,-7.463303208E-2,1.689195633E-2,7.812452316E-2
4.365973501E0,-9.192170203E-2,2.161169052E-2,8.354377747E-2
4.370973501E0,-1.092706621E-1,3.107595444E-2,6.961631775E-2
4.375973501E0,-1.034494340E-1,1.752328873E-2,6.844139099E-2
4.380973501E0,-8.667223155E-2,2.257966995E-2,5.467844009E-2
4.385973501E0,-5.631050467E-2,1.714229584E-3,5.789756775E-3
4.390973501E0,9.414285421E-3,-1.616668701E-2,-8.523464203E-3
4.395973501E0,3.783397377E-2,-3.481578827E-2,-2.076148987E-2
4.400973501E0,6.370122731E-2,-5.163764954E-2,-7.448101044E-2
4.405973501E0,5.010267347E-2,-6.573200226E-2,-8.664751053E-2
4.410973501E0,2.604208887E-2,-5.451488495E-2,-1.227822304E-1
4.415973501E0,1.927271485E-3,-4.651308060E-2,-1.391053200E-1
4.420973501E0,-1.446087658E-2,-3.733062744E-2,-1.570472717E-1
4.425973501E0,-3.067994118E-2,-2.050065994E-2,-1.491580009E-1
4.430973501E0,-5.714389682E-2,-4.541873932E-3,-1.254658699E-1
4.435973501E0,-1.037876010E-1,1.570224762E-3,-7.185506821E-2
4.440973501E0,-1.147077531E-1,6.438255310E-3,-3.046655655E-2
4.445973501E0,-8.616371453E-2,7.763385773E-3,2.367019653E-2
4.450973501E0,-7.487703860E-2,1.706838608E-2,4.697322845E-2
4.455973501E0,-4.494640231E-2,3.598690033E-3,2.435302734E-2
4.460973501E0,-3.651286662E-2,5.230903625E-3,2.899122238E-2
4.465973501E0,-1.907254755E-2,-8.350849152E-3,2.587985992E-2
4.470973501E0,-6.463378668E-3,-1.185035706E-2,4.453039169E-2
4.475973501E0,6.865516305E-3,-1.224565506E-2,7.777500153E-2
4.480973501E0,1.274733245E-2,-1.278924942E-2,9.220600128E-2
4.485973501E0,3.180935979E-2,-2.664041519E-2,8.226251602E-2
4.490973501E0,5.747098476E-2,-4.560470581E-3,7.678079605E-2
4.495973501E0,4.966041446E-2,4.841327667E-3,5.968093872E-3
4.500973501E0,1.526118815E-2,2.241563797E-2,-4.551696777E-2
4.505973501E0,-1.222091913E-2,2.461481094E-2,-9.432792664E-2
4.510973501E0,-4.510420561E-2,3.256130219E-2,-1.151180267E-1
4.515973501E0,-6.305627525E-2,2.753305435E-2,-1.051602364E-1
4.520973501E0,-9.126189351E-2,3.017568588E-2,-9.186315536E-2
4.525973501E0,-8.788891137E-2,6.772518158E-3,-6.498384476E-2
4.530973501E0,-4.774118960E-2,1.008367538E-2,-4.419374466E-2
4.535973501E0,7.542014122E-3,-1.585626602E-2,-2.594709396E-2
4.540973501E0,4.111404717E-2,-3.563594818E-2,-3.649806976E-2
4.545973501E0,4.631195962E-2,-5.066204071E-2,-2.736091614E-2
4.550973501E0,6.035910547E-2,-4.007482529E-2,-4.525089264E-2
4.555973501E0,2.998065948E-2,-2.260541916E-2,-4.478931427E-2
4.560973501E0,2.902765572E-2,-6.723403931E-4,-2.950048447E-2
4.565973501E0,3.778395057E-2,1.968002319E-2,-4.116296768E-2
4.570973501E0,6.492134184E-2,3.764057159E-2,-9.782266617E-2
4.575973501E0,7.206168026E-2,5.878639221E-2,-1.485567093E-1
4.580973501E0,7.310245931E-2,6.266498566E-2,-1.726527214E-1
4.585973501E0,7.211591303E-2,9.813833237E-2,-1.891088486E-1
4.590973501E0,5.628208816E-2,1.034140587E-1,-1.803698540E-1
4.595973501E0,2.157692611E-2,1.108012199E-1,-1.472659111E-1
4.600973501E0,-4.107119143E-2,7.181119919E-2,-2.728080750E-2
4.605973501E0,-5.097591877E-2,5.168819427E-2,1.406788826E-1
4.610973501E0,-3.323282301E-2,3.847885132E-2,2.458405495E-1
4.615973501E0,-5.721478164E-2,4.625320435E-3,3.032193184E-1
4.620973501E0,-7.427823544E-2,-4.085540771E-3,3.665103912E-1
4.625973501E0,-8.746050298E-2,-2.030706406E-2,4.104881287E-1
4.630973501E0,-4.934243858E-2,-5.756998062E-2,4.706463814E-1
4.635973501E0,-3.824719787E-2,-6.545591354E-2,4.684243202E-1
4.640973501E0,-1.051299274E-2,-7.776498795E-2,3.990859985E-1
4.645973501E0,1.435333490E-2,-8.753395081E-2,2.879076004E-1
4.650973501E0,5.033329129E-3,-8.020496368E-2,1.442017555E-1
4.655973501E0,1.589623094E-2,-7.080364227E-2,-1.554489136E-3
4.660973501E0,1.244504750E-2,-4.351377487E-2,-8.846855164E-2
4.665973501E0,1.173079014E-2,-3.420257568E-2,-1.648926735E-1
4.670973501E0,6.519556046E-3,-1.852607727E-2,-2.539081573E-1
4.675973501E0,6.156712770E-3,-1.152467728E-2,-3.324432373E-1
4.680973501E0,2.116328478E-2,-5.846977234E-3,-3.668360710E-1
4.685973501E0,3.260895610E-3,1.315402985E-2,-3.516592979E-1
4.690973501E0,3.932322562E-2,1.769065857E-3,-2.848052979E-1
4.695973501E0,2.105163038E-2,4.685401917E-3,-2.398939133E-1
4.700973501E0,-1.576557755E-2,2.671241760E-3,-1.722106934E-1
4.705973501E0,-4.995717108E-2,3.006172180E-2,-1.258792877E-1
4.710973501E0,-7.012179494E-2,4.118871689E-2,-8.956670761E-2
4.715973501E0,-5.487510562E-2,3.224992752E-2,-4.621362686E-2
4.720973501E0,-2.924501896E-2,2.529382706E-2,-1.731538773E-2
4.725973501E0,-2.377077937E-3,1.008701324E-2,3.295183182E-2
4.730973501E0,-1.445975900E-2,1.442003250E-2,1.510763168E-2
4.735973501E0,-6.276850402E-2,1.383447647E-2,-3.272533417E-3
4.740973501E0,-9.024086595E-2,1.738357544E-2,-1.011276245E-2
4.745973501E0,-8.806636930E-2,2.176904678E-2,-5.514621735E-3
4.750973501E0,-6.157003343E-2,2.786779404E-2,-1.457357407E-2
4.755973501E0,-5.900290608E-2,1.236724854E-2,-1.264381409E-2
4.760973501E0,-6.285294890E-2,1.414108276E-2,-4.480361938E-2
4.765973501E0,-3.635390103E-2,8.972167969E-3,-5.859851837E-2
4.770973501E0,-1.971054077E-2,1.023197174E-2,-6.018209457E-2
4.775973501E0,-8.182629943E-3,2.015733719E-2,-4.277515411E-2
4.780973501E0,1.546837389E-2,2.450895309E-2,-1.587772369E-2
4.785973501E0,4.128777981E-2,3.021144867E-2,1.687765121E-2
4.790973501E0,4.056206346E-2,1.470899582E-2,4.586505890E-2
4.795973501E0,3.498770297E-2,1.298189163E-2,7.591581345E-2
4.800973501E0,4.790544510E-2,1.052904129E-2,8.389711380E-2
4.805973501E0,5.391079187E-2,1.929235458E-2,1.069483757E-1
4.810973501E0,6.866592169E-2,1.181650162E-2,1.140646935E-1
4.815973501E0,7.999233902E-2,1.824855804E-3,8.157539368E-2
4.820973501E0,5.365921557E-2,-2.878665924E-3,5.724954605E-2
4.825973501E0,1.031439006E-2,9.021759033E-3,5.479955673E-2
4.830973501E0,6.533727050E-3,2.387237549E-2,5.557107925E-2
4.835973501E0,-1.296710968E-2,3.126859665E-2,6.609106064E-2
4.840973501E0,-3.152903914E-2,2.813577652E-2,9.926652908E-2
4.845973501E0,-3.018848598E-2,1.621675491E-2,1.193261147E-1
4.850973501E0,1.784691215E-2,5.208015442E-3,1.005587578E-1
4.855973501E0,3.576056659E-2,2.460956573E-3,6.146144867E-2
4.860973501E0,5.478821695E-2,-1.311922073E-2,3.264617920E-2
4.865973501E0,7.930281758E-2,-5.117416382E-3,-3.088617325E-2
4.870973501E0,1.452813148E-1,-9.305477142E-3,-9.891843796E-2
4.875973501E0,1.434037089E-1,-1.118373871E-2,-1.743183136E-1
4.880973501E0,1.204209998E-1,-4.263877869E-3,-2.293143272E-1
4.885973501E0,7.315041125E-2,1.852035522E-3,-2.662844658E-1
4.890973501E0,1.427973807E-2,3.721809387E-2,-2.603931427E-1
4.895973501E0,-3.518448770E-2,4.198837280E-2,-2.363595963E-1
4.900973501E0,-6.938442588E-2,6.678819656E-2,-1.730833054E-1
4.905973501E0,-1.480465978E-1,5.600929260E-2,-1.304702759E-1
4.910973501E0,-1.939484030E-1,6.332969666E-2,-7.823038101E-2
4.915973501E0,-1.553560495E-1,5.919694901E-2,-1.737785339E-2
4.920973501E0,-9.100444615E-2,3.524255753E-2,6.251955032E-2
4.925973501E0,-3.410741687E-2,2.078294754E-2,8.845663071E-2
4.930973501E0,3.886526823E-2,-1.962804794E-2,1.365828514E-1
4.935973501E0,8.020225167E-2,-4.678487778E-2,1.463985443E-1
4.940973501E0,8.330322802E-2,-6.539344788E-2,1.595883369E-1
4.945973501E0,7.377062738E-2,-4.605770111E-2,1.850485802E-1
4.950973501E0,6.439631432E-2,-2.731609344E-2,1.795568466E-1
4.955973501E0,3.392621875E-2,-1.319885254E-3,1.497626305E-1
4.960973501E0,-4.513487220E-3,4.500389099E-3,1.130270958E-1
4.965973501E0,1.542811096E-2,-1.304149628E-3,1.650238037E-2
4.970973501E0,4.578945041E-2,-1.293659210E-3,-3.603649139E-2
4.975973501E0,5.991595984E-2,-4.331588745E-3,-8.385467529E-2
4.980973501E0,5.941182375E-2,-1.909923553E-2,-1.237292290E-1
4.985973501E0,5.875164270E-2,-1.446628571E-2,-1.546888351E-1
4.990973501E0,5.782324076E-2,-2.627849579E-2,-1.776733398E-1
4.995973501E0,2.414470911E-2,-4.352426529E-2,-2.116703987E-1
5.000973501E0,-1.669524610E-2,-5.054521561E-2,-2.218427658E-1
5.005973501E0,-1.914671063E-2,-3.322744370E-2,-1.865248680E-1
5.010973501E0,-2.642169595E-3,-2.435398102E-2,-1.470174789E-1
5.015973501E0,9.993314743E-3,-1.248455048E-2,-1.138482094E-1
5.020973501E0,1.925352216E-2,-3.546047211E-2,-7.267189026E-2
5.025973501E0,-6.223589182E-3,-3.568696976E-2,-6.045532227E-2
5.030973501E0,-4.365289211E-2,-1.913881302E-2,-2.144002914E-2
5.035973501E0,-4.488700628E-2,8.330345154E-4,1.182746887E-2
5.040973501E0,-7.776838541E-2,3.043222427E-2,5.550098419E-2
5.045973501E0,-6.278963387E-2,4.214191437E-2,8.898973465E-2
5.050973501E0,-2.970059216E-2,4.328346252E-2,9.160375595E-2
5.055973501E0,-2.125385404E-2,4.751491547E-2,1.056680679E-1
5.060973501E0,-2.464252710E-2,2.443313599E-2,1.131372452E-1
5.065973501E0,-1.323406398E-2,5.444049835E-3,1.057300568E-1
5.070973501E0,2.101165056E-2,-1.459121704E-2,4.126548767E-2
5.075973501E0,2.912175655E-2,-2.417707443E-2,-6.422996521E-4
5.080973501E0,4.815461487E-2,-3.660345078E-2,-6.059122086E-2
5.085973501E0,7.399819791E-2,-3.647279739E-2,-8.974456787E-2
5.090973501E0,9.623204172E-2,-3.868913651E-2,-8.084344864E-2
5.095973501E0,1.013759896E-1,-4.420852661E-2,-5.465030670E-2
5.100973501E0,9.972594678E-2,-5.347633362E-2,-2.128744125E-2
5.105973501E0,7.655999810E-2,-5.210781097E-2,1.180505753E-2
5.110973501E0,4.894799739E-2,-5.215978622E-2,1.739263535E-2
5.115973501E0,2.868607640E-2,-2.403926849E-2,-5.688667297E-4
5.120973501E0,2.040708065E-2,1.389694214E-2,1.689910889E-3
5.125973501E0,1.035621762E-2,3.181171417E-2,-2.935981750E-2
5.130973501E0,-1.051534712E-2,6.005859375E-2,-3.332853317E-2
5.135973501E0,-7.796967030E-2,7.185649872E-2,-6.522274017E-2
5.140973501E0,-1.156219244E-1,1.002488136E-1,-4.413890839E-2
5.145973501E0,-1.164032221E-1,1.570143700E-1,-1.092672348E-2
5.150973501E0,-8.381421864E-2,1.623778343E-1,-7.729530334E-4
5.155973501E0,-9.263272583E-2,1.429495811E-1,5.285787582E-2
5.160973501E0,-1.025909483E-1,1.217489243E-1,9.866857529E-2
5.165973501E0,-9.777940810E-2,1.087713242E-1,1.451606750E-1
5.170973501E0,-8.396819234E-2,8.290004730E-2,2.300930023E-1
5.175973501E0,-4.429303110E-2,6.003570557E-2,2.676391602E-1
5.180973501E0,4.868373275E-3,4.580020905E-3,2.741575241E-1
5.185973501E0,5.377889425E-2,-5.354976654E-2,2.367606163E-1
5.190973501E0,9.729451686E-2,-1.071677208E-1,1.971778870E-1
5.195973501E0,1.414269805E-1,-1.147303581E-1,1.555948257E-1
5.200973501E0,1.493941098E-1,-1.103487015E-1,7.643222809E-2
5.205973501E0,1.311799884E-1,-1.082286835E-1,-4.742288589E-2
5.210973501E0,7.172248513E-2,-7.422351837E-2,-1.427307129E-1
5.215973501E0,3.029748797E-3,-6.410837173E-2,-2.287402153E-1
5.220973501E0,-1.643675566E-2,-4.378175735E-2,-2.736902237E-1
5.225973501E0,-7.273733616E-3,-2.468299866E-2,-2.902369499E-1
5.230973501E0,3.458574414E-3,-3.622055054E-3,-3.284640312E-1
5.235973501E0,2.302795649E-3,1.740932465E-2,-3.026261330E-1
5.240973501E0,-2.340291440E-2,3.655910492E-2,-2.645764351E-1
5.245973501E0,-4.693113267E-2,5.902194977E-2,-2.369818687E-1
5.250973501E0,-4.657752812E-2,6.172513962E-2,-1.322283745E-1
5.255973501E0,2.196997404E-3,6.450033188E-2,-7.427215576E-3
5.260973501E0,2.384019643E-2,2.673816681E-2,8.880424500E-2
5.265973501E0,2.938514948E-2,-1.835823059E-4,1.294946671E-1
5.270973501E0,9.931445122E-3,-1.489448547E-2,1.204066277E-1
5.275973501E0,9.663224220E-3,-1.461172104E-2,1.235470772E-1
5.280973501E0,1.521031559E-2,-1.647138596E-2,1.263494492E-1
5.285973501E0,2.897226810E-2,-2.213621140E-2,1.261878014E-1
5.290973501E0,2.667079866E-2,-3.771877289E-2,1.081037521E-1
5.295973501E0,1.166270673E-2,-4.394721985E-2,8.197164536E-2
5.300973501E0,-4.907503724E-3,-3.029394150E-2,-1.447200775E-3
5.305973501E0,-3.392080963E-2,1.411819458E-2,-3.626394272E-2
5.310973501E0,-2.364042401E-2,3.117418289E-2,-6.995964050E-2
5.315973501E0,9.199380875E-4,5.036115646E-2,-6.840610504E-2
5.320973501E0,-8.364379406E-3,6.349039078E-2,-6.502819061E-2
5.325973501E0,7.062003016E-3,7.397890091E-2,-5.311965942E-2
5.330973501E0,1.368001848E-2,8.866691589E-2,-2.268171310E-2
5.335973501E0,1.761763543E-2,9.016752243E-2,4.444742203E-2
5.340973501E0,4.135118425E-2,9.114837646E-2,1.217026711E-1
5.345973501E0,5.252340436E-2,7.160234451E-2,1.884422302E-1
5.350973501E0,7.412299514E-2,6.208848953E-2,1.946101189E-1
5.355973501E0,9.670479596E-2,5.277061462E-2,2.023539543E-1
5.360973501E0,1.079704091E-1,4.430007935E-2,1.943025589E-1
5.365973501E0,1.130865589E-1,4.608201981E-2,1.545176506E-1
5.370973501E0,1.021322682E-1,3.527116776E-2,1.223468781E-1
5.375973501E0,8.524620533E-2,3.108739853E-2,2.716398239E-2
5.380973501E0,4.941970110E-2,4.040479660E-2,-3.886938095E-2
5.385973501E0,2.829499543E-3,5.674409866E-2,-6.550931931E-2
5.390973501E0,-5.891357362E-2,5.790185928E-2,-7.967329025E-2
5.395973501E0,-6.797781587E-2,4.746723175E-2,-9.650325775E-2
5.400973501E0,-5.218473077E-2,5.396890640E-2,-1.122202873E-1
5.405973501E0,-5.534063280E-2,4.329776764E-2,-1.003193855E-1
5.410973501E0,-4.616971314E-2,3.113508224E-2,-8.366632462E-2
5.415973501E0,-1.510703564E-2,-2.521514893E-3,-7.521438599E-2
5.420973501E0,3.385853767E-2,-3.841733932E-2,-3.042697906E-2
5.425973501E0,7.279291004E-2,-7.047176361E-2,-1.493597031E-2
5.430973501E0,1.047533900E-1,-8.604049683E-2,1.544475555E-2
5.435973501E0,1.180451214E-1,-9.234666824E-2,8.784294128E-3
5.440973501E0,9.214282036E-2,-1.173343658E-1,2.733993530E-2
5.445973501E0,3.907716274E-2,-1.154680252E-1,2.363348007E-2
5.450973501E0,-1.738145947E-4,-8.566331863E-2,1.832962036E-2
5.455973501E0,-2.806038409E-2,-6.188106537E-2,-1.064729691E-2
5.460973501E0,-2.583578974E-2,-3.239488602E-2,-5.657720566E-2
5.465973501E0,-3.812345862E-2,-1.143026352E-2,-1.327147484E-1
5.470973501E0,-1.022380516E-1,9.642124176E-3,-2.034282684E-1
5.475973501E0,-1.488853395E-1,4.392671585E-2,-1.947960854E-1
5.480973501E0,-1.740459204E-1,8.390045166E-2,-2.020487785E-1
5.485973501E0,-1.641711742E-1,9.550046921E-2,-1.775674820E-1
5.490973501E0,-1.085690260E-1,8.363485336E-2,-1.318688393E-1
5.495973501E0,-2.194523811E-2,4.580402374E-2,-7.110977173E-2
5.500973501E0,2.760945261E-2,1.109123230E-2,-4.206657410E-2
5.505973501E0,8.737614751E-2,-3.928756714E-2,7.674694061E-3
5.510973501E0,9.338686615E-2,-5.187177658E-2,3.124141693E-2
5.515973501E0,1.056110263E-1,-5.714368820E-2,8.158540726E-2
5.520973501E0,9.885846078E-2,-6.888389587E-2,1.014575958E-1
5.525973501E0,7.953067869E-2,-7.714653015E-2,1.217880249E-1
5.530973501E0,6.297363341E-2,-7.454395294E-2,1.335353851E-1
5.535973501E0,5.535310507E-2,-4.592084885E-2,1.129775047E-1
5.540973501E0,3.366375715E-2,-2.372694016E-2,1.138515472E-1
5.545973501E0,-2.181507647E-3,-3.689289093E-3,7.912921906E-2
5.550973501E0,-2.899757028E-2,2.037572861E-2,1.045751572E-2
5.555973501E0,-7.762413472E-2,3.589487076E-2,-3.085803986E-2
5.560973501E0,-9.641300887E-2,4.660844803E-2,-1.727104187E-2
5.565973501E0,-8.528010547E-2,6.654214859E-2,1.489162445E-3
5.570973501E0,-9.295038134E-2,9.524106979E-2,2.198219299E-4
5.575973501E0,-6.866448373E-2,8.509492874E-2,3.519392014E-2
5.580973501E0,-5.344332010E-2,7.611179352E-2,5.877876282E-2
5.585973501E0,-6.810501218E-4,6.076622009E-2,1.075201035E-1
5.590973501E0,4.302114248E-2,5.953550339E-2,1.402187347E-1
5.595973501E0,6.257059425E-2,5.645227432E-2,1.820125580E-1
5.600973501E0,8.177948743E-2,4.466485977E-2,2.207322121E-1
5.605973501E0,7.412584126E-2,1.849555969E-2,2.333998680E-1
5.610973501E0,7.222502679E-2,2.303600311E-2,1.885848045E-1
5.615973501E0,6.574944407E-2,2.140188217E-2,1.269602776E-1
5.620973501E0,5.739035457E-2,-8.039474487E-4,1.277637482E-2
5.625973501E0,3.481348604E-2,-8.107185364E-3,-1.081643105E-1
5.630973501E0,2.253001928E-2,-2.402782440E-2,-2.059526443E-1
5.635973501E0,1.409882307E-2,-3.733110428E-2,-2.470989227E-1
5.640973501E0,1.198298484E-2,-3.446006775E-2,-2.745661736E-1
5.645973501E0,-2.750769258E-2,-3.575754166E-2,-2.242650986E-1
5.650973501E0,-3.751356900E-2,-3.994560242E-2,-1.989870071E-1
5.655973501E0,-2.521733195E-2,-4.885864258E-2,-1.845331192E-1
5.660973501E0,-4.750341177E-4,-5.582475662E-2,-1.429791451E-1
5.665973501E0,1.568234712E-2,-5.001068115E-2,-1.325745583E-1
5.670973501E0,1.311707497E-2,-4.405307770E-2,-1.229128838E-1
5.675973501E0,5.095833167E-2,-3.727817535E-2,-9.213113785E-2
5.680973501E0,6.157201529E-2,-1.404857635E-2,-7.670450211E-2
5.685973501E0,3.962835670E-2,1.183795929E-2,-6.032752991E-2
5.690973501E0,-1.668733358E-2,3.144741058E-2,-7.710933685E-2
5.695973501E0,-3.869605809E-2,5.416011810E-2,-6.929779053E-2
5.700973501E0,-1.088231802E-4,8.167743683E-2,-2.487993240E-2
5.705973501E0,2.573505044E-2,8.662462234E-2,8.735752106E-2
5.710973501E0,5.696685985E-2,5.170106888E-2,1.491222382E-1
5.715973501E0,3.439436853E-2,2.323627472E-2,1.914510727E-1
5.720973501E0,3.376334161E-2,-1.650285721E-2,1.861586571E-1
5.725973501E0,1.577317715E-2,-2.231836319E-2,1.963586807E-1
5.730973501E0,-2.848064899E-2,-2.918624878E-2,2.113838196E-1
5.735973501E0,-5.658508837E-2,-3.705167770E-2,2.063145638E-1
5.740973501E0,-8.575875312E-2,-2.990150452E-2,1.756901741E-1
5.745973501E0,-6.448850781E-2,-3.736066818E-2,5.541419983E-2
5.750973501E0,-6.457872689E-2,-3.968095779E-2,-3.359937668E-2
5.755973501E0,-8.570693433E-2,-1.651239395E-2,-9.712743759E-2
5.760973501E0,-1.001281366E-1,-4.267215729E-3,-1.496686935E-1
5.765973501E0,-1.251791716E-1,1.444625854E-2,-1.571702957E-1
5.770973501E0,-1.362455785E-1,1.918649673E-2,-1.527132988E-1
5.775973501E0,-1.119355932E-1,1.858472824E-2,-1.461329460E-1
5.780973501E0,-5.904506892E-2,-9.580612183E-3,-9.604215622E-2
5.785973501E0,1.652542502E-2,-1.780843735E-2,-5.673503876E-2
5.790973501E0,8.263028413E-2,-4.335355759E-2,-3.506088257E-2
5.795973501E0,1.264283210E-1,-6.452703476E-2,-1.134872437E-2
5.800973501E0,1.408609450E-1,-8.733558655E-2,2.899646759E-3
5.805973501E0,1.057018414E-1,-7.414197922E-2,1.902103424E-2
5.810973501E0,7.605808973E-2,-5.110406876E-2,4.982948303E-4
5.815973501E0,6.394335628E-2,-1.370143890E-2,-2.565383911E-2
5.820973501E0,2.666333318E-2,8.966445923E-3,-8.374834061E-2
5.825973501E0,-1.539716870E-2,1.075887680E-2,-1.528258324E-1
5.830973501E0,-5.136392266E-2,1.878929138E-2,-1.936879158E-1
5.835973501E0,-8.350218832E-2,2.579975128E-2,-1.987476349E-1
5.840973501E0,-9.414961934E-2,3.133440018E-2,-1.786494255E-1
5.845973501E0,-5.868767947E-2,1.591110229E-2,-9.959554672E-2
5.850973501E0,-3.289290518E-2,-1.286792755E-2,-2.406930923E-2
5.855973501E0,7.566079497E-3,-4.477405548E-2,1.918697357E-2
5.860973501E0,2.408187836E-2,-6.042242050E-2,4.362297058E-2
5.865973501E0,1.727387309E-2,-5.738162994E-2,8.752727509E-2
5.870973501E0,3.301522881E-2,-6.481695175E-2,1.284818649E-1
5.875973501E0,3.659828007E-2,-4.379701614E-2,1.461801529E-1
5.880973501E0,4.966292530E-2,-2.518177032E-2,6.746530533E-2
5.885973501E0,3.722018749E-2,-3.169250488E-2,-3.733634949E-3
5.890973501E0,1.096973568E-2,1.416206360E-3,-7.822084427E-2
5.895973501E0,-3.005588800E-2,3.972005844E-2,-1.277189255E-1
5.900973501E0,-4.149032384E-2,6.899166107E-2,-1.665129662E-1
5.905973501E0,-6.444682181E-2,1.003413200E-1,-1.798362732E-1
5.910973501E0,-4.530702531E-2,1.143794060E-1,-1.745338440E-1
5.915973501E0,-5.057218671E-2,1.020536423E-1,-1.335573196E-1
5.920973501E0,-4.721598327E-2,8.146715164E-2,-7.969284058E-2
5.925973501E0,-1.727356017E-2,7.342910767E-2,-3.651237488E-2
5.930973501E0,2.480202168E-2,5.057048798E-2,2.180576324E-2
5.935973501E0,5.949560180E-2,9.534835815E-3,7.792043686E-2
5.940973501E0,1.002132893E-1,-1.618576050E-2,1.506814957E-1
5.945973501E0,1.118516177E-1,-4.041814804E-2,2.089233398E-1
5.950973501E0,8.751567453E-2,-5.767917633E-2,2.263045311E-1
5.955973501E0,6.970010698E-2,-5.842208862E-2,1.978840828E-1
5.960973501E0,7.139705122E-3,-4.292488098E-2,1.557321548E-1
5.965973501E0,-6.087084115E-2,2.467632294E-3,1.035332680E-1
5.970973501E0,-1.160135046E-1,3.661060333E-2,6.852340698E-2
5.975973501E0,-1.634608209E-1,7.069969177E-2,4.328060150E-2
5.980973501E0,-1.781916320E-1,5.448293686E-2,2.984714508E-2
5.985973501E0,-1.546094120E-1,7.004928589E-2,-6.909847260E-3
5.990973501E0,-1.195504740E-1,6.499767303E-2,-3.893899918E-2
5.995973501E0,-4.922837019E-2,5.422496796E-2,-8.041763306E-2
6.000973501E0,3.241289407E-2,2.225637436E-2,-1.059312820E-1
6.005973501E0,7.516576350E-2,2.776622772E-3,-8.369779587E-2
6.010973501E0,9.203439951E-2,-3.565311432E-3,-1.134819984E-1
6.015973501E0,6.347830594E-2,-1.007127762E-2,-9.017419815E-2
6.020973501E0,2.626407146E-2,-2.206897736E-2,-2.788925171E-2
6.025973501E0,1.610274613E-2,-7.144451141E-3,1.543569565E-2
6.030973501E0,-2.310254425E-2,8.411407471E-4,3.753471375E-2
6.035973501E0,-4.376877844E-2,7.443428040E-3,-9.045600891E-4
6.040973501E0,-6.370884180E-2,7.241249084E-3,-3.590106964E-2
6.045973501E0,-6.616258621E-2,7.032871246E-3,-7.126283646E-2
6.050973501E0,-9.305451810E-2,1.751995087E-2,-1.061525345E-1
6.055973501E0,-9.410175681E-2,2.675771713E-2,-1.201233864E-1
6.060973501E0,-1.075876653E-1,3.788566589E-2,-1.258282661E-1
6.065973501E0,-1.139434129E-1,4.563331604E-2,-1.437363625E-1
6.070973501E0,-1.167614087E-1,4.325580597E-2,-1.567077637E-1
6.075973501E0,-9.705770016E-2,4.720640182E-2,-1.555409431E-1
6.080973501E0,-5.962143838E-2,3.828716278E-2,-9.264564514E-2
6.085973501E0,-4.820627719E-2,2.915287018E-2,-7.049751282E-2
6.090973501E0,-1.488535851E-2,-1.676082611E-3,-2.185535431E-2
6.095973501E0,-5.714595318E-5,-2.168560028E-2,1.747131348E-3
6.100973501E0,1.411724091E-2,-1.727151871E-2,3.400325775E-3
6.105973501E0,3.421281278E-2,-2.163839340E-2,4.397392273E-2
6.110973501E0,7.303285599E-2,-3.279590607E-2,1.169471741E-1
6.115973501E0,8.548484743E-2,-3.692007065E-2,1.635208130E-1
6.120973501E0,7.931114733E-2,-2.546310425E-2,1.373825073E-1
6.125973501E0,6.819372624E-2,-2.813816071E-2,1.070375443E-1
6.130973501E0,3.875377029E-2,-4.582405090E-4,5.856466293E-2
6.135973501E0,-2.735860646E-3,2.692317963E-2,2.945756912E-2
6.140973501E0,-2.377831936E-2,5.028152466E-2,2.094173431E-2
6.145973501E0,-1.209629327E-2,7.163429260E-2,1.290321350E-2
6.150973501E0,-3.975267708E-2,1.069388390E-1,1.386165619E-2
6.155973501E0,-4.135439545E-2,1.254105568E-1,-3.183031082E-2
6.160973501E0,-2.980039269E-2,1.295547485E-1,-6.419754028E-2
6.165973501E0,-1.577750593E-2,1.276612282E-1,-4.996824265E-2
6.170973501E0,-5.291581154E-3,1.189064980E-1,-4.572582245E-2
6.175973501E0,1.237805933E-2,1.050944328E-1,-5.437278748E-2
6.180973501E0,4.841412604E-2,7.918691635E-2,-7.373094559E-2
6.185973501E0,3.394888341E-2,5.795192719E-2,-9.519433975E-2
6.190973501E0,6.436890364E-2,5.062103271E-2,-1.139693260E-1
6.195973501E0,7.439328730E-2,2.961397171E-2,-9.394216537E-2
6.200973501E0,8.712983131E-2,-5.831718445E-3,-4.980182648E-2
6.205973501E0,1.112034246E-1,-1.452541351E-2,-2.967119217E-2
6.210973501E0,1.181999967E-1,-2.870893478E-2,-4.877853394E-2
6.215973501E0,1.077770665E-1,-3.039407730E-2,-8.552122116E-2
6.220973501E0,4.141353071E-2,1.220083237E-2,-5.529689789E-2
6.225973501E0,4.534300417E-2,4.467201233E-2,-6.903982162E-2
6.230973501E0,2.653516829E-2,7.854461670E-2,-4.591608047E-2
6.235973501E0,5.185455084E-4,8.988475800E-2,-3.964567184E-2
6.240973501E0,-5.115583539E-3,9.943151474E-2,-3.600120544E-2
6.245973501E0,-5.190812051E-3,1.277475357E-1,-3.614950180E-2
6.250973501E0,-1.159658283E-2,1.598267555E-1,-2.013206482E-2
6.255973501E0,-3.138507158E-2,1.634373665E-1,6.831312180E-2
6.260973501E0,-6.755263358E-2,1.592626572E-1,1.309041977E-1
6.265973501E0,-8.128874749E-2,1.473789215E-1,2.253222466E-1
6.270973501E0,-6.245254725E-2,1.252694130E-1,2.849941254E-1
6.275973501E0,-3.992633522E-2,9.673643112E-2,3.335080147E-1
6.280973501E0,-2.509377897E-2,4.945945740E-2,3.627858162E-1
6.285973501E0,-2.438060939E-2,1.024341583E-2,3.356065750E-1
6.290973501E0,-3.529898077E-2,-8.975982666E-3,2.787642479E-1
6.295973501E0,-2.474214882E-2,-3.466320038E-2,2.062487602E-1
6.300973501E0,-1.882111281E-2,-4.720926285E-2,1.305656433E-1
6.305973501E0,-2.797432989E-2,-5.142974854E-2,6.096649170E-2
6.310973501E0,-3.323394805E-2,-6.116390228E-2,-6.631135941E-2
6.315973501E0,-3.256952763E-2,-5.099058151E-2,-2.193880081E-1
6.320973501E0,-5.301138014E-2,-7.314157486E-2,-3.573737144E-1
6.325973501E0,-3.836385906E-2,-8.274841309E-2,-4.444794655E-1
6.330973501E0,-4.449190944E-2,-5.992984772E-2,-5.238380432E-1
6.335973501E0,-4.355726391E-2,-2.521419525E-2,-5.413937569E-1
6.340973501E0,-6.100466102E-2,1.523590088E-2,-5.126657486E-1
6.345973501E0,-5.491818488E-2,3.387212753E-2,-4.613351822E-1
6.350973501E0,-1.088219136E-2,2.689075470E-2,-3.906836510E-1
6.355973501E0,6.834708154E-3,1.340007782E-2,-2.897825241E-1
6.360973501E0,1.453697681E-3,1.260280609E-2,-1.774497032E-1
6.365973501E0,1.667528600E-2,2.221107483E-2,-6.618738174E-2
6.370973501E0,3.435717523E-2,2.956390381E-2,3.887748718E-2
6.375973501E0,2.097948641E-2,1.978874207E-4,1.271581650E-1
6.380973501E0,1.640374213E-2,-3.053140640E-2,1.677446365E-1
6.385973501E0,2.087362856E-2,-2.714300156E-2,1.973547935E-1
6.390973501E0,2.494223416E-2,-1.987552643E-2,1.894063950E-1
6.395973501E0,-1.688692719E-2,-1.149272919E-2,1.433906555E-1
6.400973501E0,-4.413605481E-2,-1.362323761E-2,8.009481430E-2
6.405973501E0,-2.475713193E-2,4.043102264E-3,1.721763611E-2
6.410973501E0,-4.564426839E-2,2.009773254E-2,-7.502126694E-2
6.415973501E0,-9.584498405E-2,4.671859741E-2,-1.184687614E-1
6.420973501E0,-1.167862788E-1,8.353567123E-2,-1.652817726E-1
6.425973501E0,-9.056925029E-2,1.055674553E-1,-1.366877556E-1
6.430973501E0,-7.722210884E-2,1.019754410E-1,-1.428418159E-1
6.435973501E0,-6.470236927E-2,9.816312790E-2,-1.008949280E-1
6.440973501E0,-5.238755792E-2,1.007452011E-1,-5.633783340E-2
6.445973501E0,-4.745175689E-2,9.728002548E-2,3.240489960E-2
6.450973501E0,-1.135954261E-2,9.215354919E-2,7.851314545E-2
6.455973501E0,9.736843407E-3,7.139778137E-2,1.390519142E-1
6.460973501E0,2.517797798E-2,5.316972733E-2,1.763124466E-1
6.465973501E0,6.036254391E-2,3.685712814E-2,1.961770058E-1
6.470973501E0,8.666982502E-2,2.146291733E-2,1.806950569E-1
6.475973501E0,8.444309980E-2,2.571153641E-2,9.567117691E-2
6.480973501E0,2.765139937E-2,2.923917770E-2,5.439472198E-2
6.485973501E0,-2.502442151E-2,4.809045792E-2,1.464891434E-2
6.490973501E0,-3.699503839E-2,7.807588577E-2,1.567173004E-2
6.495973501E0,-5.015265197E-2,9.078168869E-2,-1.648807526E-2
6.500973501E0,-3.889849782E-2,8.303833008E-2,-6.692266464E-2
6.505973501E0,2.807252109E-3,4.918432236E-2,-1.284236908E-1
6.510973501E0,5.039128661E-2,1.698970795E-2,-1.673111916E-1
6.515973501E0,6.701882184E-2,2.204704285E-2,-1.874718666E-1
6.520973501E0,5.822665244E-2,4.288768768E-2,-1.456770897E-1
6.525973501E0,3.677642345E-2,5.057859421E-2,-1.259870529E-1
6.530973501E0,1.827254891E-2,3.374624252E-2,-8.956956863E-2
6.535973501E0,3.490388393E-3,1.195478439E-2,-4.132032394E-2
6.540973501E0,-1.790525764E-2,6.995677948E-3,7.323741913E-3
6.545973501E0,-2.150952071E-2,1.628351212E-2,6.097745895E-2
6.550973501E0,-4.136594385E-2,4.149150848E-2,8.174419403E-2
6.555973501E0,-6.229357421E-2,4.010677338E-2,8.546638489E-2
6.560973501E0,-5.381128937E-2,5.916929245E-2,5.816078186E-2
6.565973501E0,-6.216691434E-2,6.919574738E-2,4.528713226E-2
6.570973501E0,-7.342787832E-2,8.367586136E-2,5.104684830E-2
6.575973501E0,-7.824008912E-2,7.952594757E-2,4.452180862E-2
6.580973501E0,-7.921016216E-2,8.659744263E-2,7.392549515E-2
6.585973501E0,-8.731583506E-2,9.346103668E-2,6.501245499E-2
6.590973501E0,-1.164508611E-1,9.815931320E-2,7.143163681E-2
6.595973501E0,-1.168328822E-1,1.048130989E-1,1.137104034E-1
6.600973501E0,-7.949206233E-2,1.006169319E-1,1.040258408E-1
6.605973501E0,-3.869591653E-2,5.327701569E-2,6.258058548E-2
6.610973501E0,3.605188429E-2,-3.060817719E-3,4.359245300E-3
6.615973501E0,8.217660338E-2,-3.641271591E-2,-2.109098434E-2
6.620973501E0,9.992614388E-2,-5.378818512E-2,-1.405334473E-2
6.625973501E0,8.111488819E-2,-5.111122131E-2,-1.426553726E-2
6.630973501E0,3.787630051E-2,-6.739950180E-2,-2.228784561E-2
6.635973501E0,1.990944892E-2,-7.965707779E-2,-1.799345016E-2
6.640973501E0,1.190610230E-3,-7.158660889E-2,-2.246713638E-2
6.645973501E0,-6.023317575E-3,-6.936359406E-2,-2.394676208E-2
6.650973501E0,-5.288106203E-2,-7.597446442E-2,-5.281877518E-2
6.655973501E0,-4.233981669E-2,-8.105421066E-2,-1.146273613E-1
6.660973501E0,-6.034988165E-2,-8.126401901E-2,-1.605739594E-1
6.665973501E0,-2.474379539E-2,-8.327960968E-2,-1.822633743E-1
6.670973501E0,-1.802939177E-2,-8.103322983E-2,-1.692810059E-1
6.675973501E0,-1.537618041E-2,-6.301450729E-2,-1.520991325E-1
6.680973501E0,-2.043238282E-2,-4.447412491E-2,-1.196913719E-1
6.685973501E0,-4.801630974E-2,-6.689310074E-2,-1.094222069E-1
6.690973501E0,-3.623123467E-2,-5.410242081E-2,-6.572914124E-2
6.695973501E0,-1.811353862E-2,-4.508781433E-2,-1.357936859E-2
6.700973501E0,-2.460055053E-2,-2.686357498E-2,9.186220169E-2
6.705973501E0,-3.929264843E-2,-1.340913773E-2,1.864547729E-1
6.710973501E0,-3.952632844E-2,-2.149820328E-2,2.460427284E-1
6.715973501E0,-2.217178047E-2,-4.606819153E-2,2.615194321E-1
6.720973501E0,3.872364759E-3,-5.962896347E-2,2.374358177E-1
6.725973501E0,-9.350180626E-3,-5.913066864E-2,1.976256371E-1
6.730973501E0,-3.010438383E-2,-3.973627090E-2,1.333799362E-1
6.735973501E0,-2.698604763E-2,-1.577329636E-2,1.765918732E-2
6.740973501E0,-7.271762192E-2,-1.071834564E-2,-6.503915787E-2
6.745973501E0,-1.058335155E-1,-2.504348755E-3,-1.256418228E-1
6.750973501E0,-1.135181934E-1,8.273601532E-3,-1.409387589E-1
6.755973501E0,-1.204098314E-1,1.922273636E-2,-1.308469772E-1
6.760973501E0,-1.324835867E-1,2.897930145E-2,-1.130533218E-1
6.765973501E0,-6.654664874E-2,2.511167526E-2,-9.118413925E-2
6.770973501E0,-7.599711418E-3,1.848840714E-2,-7.825231552E-2
6.775973501E0,3.163067251E-2,-2.106189728E-3,-4.824066162E-2
6.780973501E0,6.269754469E-2,-9.263038635E-3,-1.294136047E-3
6.785973501E0,6.819549203E-2,-2.331304550E-2,6.267595291E-2
6.790973501E0,7.549129426E-2,-5.904674530E-3,1.260857582E-1
6.795973501E0,1.547948271E-1,-3.478813171E-2,1.596307755E-1
6.800973501E0,1.550596207E-1,-5.606746674E-2,1.508231163E-1
6.805973501E0,1.675866246E-1,-7.342576981E-2,1.962738037E-1
6.810973501E0,1.650809348E-1,-7.167100906E-2,2.209076881E-1
6.815973501E0,1.339036524E-1,-6.480216980E-2,2.216973305E-1
6.820973501E0,7.435666025E-2,-7.070922852E-2,1.756381989E-1
6.825973501E0,2.234852314E-2,-7.609510422E-2,1.578650475E-1
6.830973501E0,2.144992352E-3,-7.956075668E-2,1.278815269E-1
6.835973501E0,-5.736500025E-4,-7.406759262E-2,1.130290031E-1
6.840973501E0,2.823747694E-3,-7.550144196E-2,6.389093399E-2
6.845973501E0,1.464883983E-2,-8.984708786E-2,1.048278809E-2
6.850973501E0,2.979865670E-2,-1.067705154E-1,-4.280853271E-2
6.855973501E0,3.250474483E-2,-1.064434052E-1,-1.055531502E-1
6.860973501E0,4.295418411E-2,-9.717702866E-2,-1.290717125E-1
6.865973501E0,6.208929420E-2,-1.100668907E-1,-1.417002678E-1
6.870973501E0,8.301670849E-2,-1.267476082E-1,-1.633362770E-1
6.875973501E0,8.157902956E-2,-1.339101791E-1,-2.176451683E-1
6.880973501E0,8.015340567E-2,-1.255869865E-1,-2.532596588E-1
6.885973501E0,7.010068744E-2,-1.174154282E-1,-2.877879143E-1
6.890973501E0,9.558796883E-3,-1.113014221E-1,-3.019185066E-1
6.895973501E0,-2.247014642E-2,-6.066131592E-2,-2.788796425E-1
6.900973501E0,-6.621326506E-2,-4.771471024E-2,-2.320680618E-1
6.905973501E0,-5.902975798E-2,-3.095388412E-2,-1.807932854E-1
6.910973501E0,-3.747787327E-2,-2.409124374E-2,-1.525068283E-1
6.915973501E0,-1.951166242E-2,-4.079580307E-2,-1.169533730E-1
6.920973501E0,7.661290467E-3,-4.372119904E-2,-2.889156342E-2
6.925973501E0,1.635400951E-2,-5.854511261E-2,6.305027008E-2
6.930973501E0,-1.461993903E-2,-5.130910873E-2,1.467013359E-1
6.935973501E0,-3.897859901E-2,-4.336214066E-2,2.172660828E-1
6.940973501E0,-8.429486305E-2,-1.586389542E-2,2.642679214E-1
6.945973501E0,-1.114558429E-1,-8.193016052E-3,3.014678955E-1
6.950973501E0,-1.370758414E-1,-5.523681641E-3,3.247656822E-1
6.955973501E0,-1.403806210E-1,-1.541614532E-3,3.320527077E-1
6.960973501E0,-1.385976970E-1,1.894092560E-2,3.150477409E-1
6.965973501E0,-1.480425745E-1,3.410959244E-2,2.514777184E-1
6.970973501E0,-1.795001775E-1,4.358863831E-2,1.811280251E-1
6.975973501E0,-1.806919128E-1,5.437660217E-2,1.181921959E-1
6.980973501E0,-1.797215641E-1,7.631444931E-2,7.927465439E-2
6.985973501E0,-1.771594733E-1,7.878112793E-2,2.315807343E-2
6.990973501E0,-1.471652538E-1,8.963823318E-2,-2.946853638E-2
6.995973501E0,-5.105097592E-2,5.692911148E-2,-8.727264404E-2
7.000973501E0,1.286980510E-2,4.064416885E-2,-1.350579262E-1
7.005973501E0,7.172127068E-2,2.458238602E-2,-2.116603851E-1
7.010973501E0,1.165151596E-1,4.146099091E-3,-2.690944672E-1
7.015973501E0,1.241950169E-1,-6.171226501E-3,-2.738118172E-1
7.020973501E0,1.244369373E-1,2.324104309E-3,-2.247595787E-1
7.025973501E0,1.414763927E-1,-1.849174500E-3,-1.717357635E-1
7.030973501E0,1.450988054E-1,2.105236053E-3,-1.614956856E-1
7.035973501E0,1.302314848E-1,-2.028703690E-2,-1.371121407E-1
7.040973501E0,1.272071898E-1,-3.076553345E-2,-1.329202652E-1
7.045973501E0,1.134434342E-1,-4.229068756E-2,-9.297561646E-2
7.050973501E0,8.767664433E-2,-3.814744949E-2,-2.848768234E-2
7.055973501E0,5.605137721E-2,-1.710462570E-2,3.638839722E-2
7.060973501E0,-4.085376859E-3,-6.601810455E-3,4.898071289E-2
7.065973501E0,-6.148743629E-2,9.895324707E-3,7.294845581E-2
7.070973501E0,-8.743771911E-2,1.160621643E-2,1.388692856E-1
7.075973501E0,-9.198714048E-2,2.633523941E-2,1.707611084E-1
7.080973501E0,-7.608618587E-2,5.016803741E-2,1.850743294E-1
7.085973501E0,-6.070763618E-2,4.984951019E-2,1.748476028E-1
7.090973501E0,-6.062927097E-2,5.696058273E-2,1.681933403E-1
7.095973501E0,-4.180219024E-2,5.412483215E-2,1.614522934E-1
7.100973501E0,-5.461205542E-2,6.568050385E-2,1.325836182E-1
7.105973501E0,-4.366870224E-2,7.790899277E-2,1.011829376E-1
7.110973501E0,-1.840709895E-2,8.355665207E-2,7.025098801E-2
7.115973501E0,8.595429361E-3,8.263206482E-2,2.047395706E-2
7.120973501E0,2.762279660E-2,5.844211578E-2,-9.218120575E-2
7.125973501E0,1.313664019E-2,4.707336426E-2,-1.804866791E-1
7.130973501E0,9.770423174E-3,5.136966705E-2,-2.258057594E-1
7.135973501E0,-8.962154388E-3,7.973575592E-2,-2.568607330E-1
7.140973501E0,-4.296426475E-2,8.481550217E-2,-3.022923470E-1
7.145973501E0,-7.406301051E-2,9.449434280E-2,-3.002004623E-1
7.150973501E0,-7.779465616E-2,1.050229073E-1,-3.012290001E-1
7.155973501E0,-8.793688565E-2,8.172464371E-2,-2.977294922E-1
7.160973501E0,-1.136293709E-1,8.719253540E-2,-2.735738754E-1
7.165973501E0,-9.351494908E-2,9.704303741E-2,-2.540473938E-1
7.170973501E0,-3.631775826E-2,6.571292877E-2,-2.117648125E-1
7.175973501E0,-3.179199994E-3,5.345058441E-2,-1.806254387E-1
7.180973501E0,4.553742707E-3,2.955436707E-2,-1.512556076E-1
7.185973501E0,-1.526325196E-2,3.967952728E-2,-1.037883759E-1
7.190973501E0,-2.370218933E-2,4.246520996E-2,-7.866621017E-2
7.195973501E0,-3.632605821E-2,3.778505325E-2,-4.202604294E-2
7.200973501E0,-1.930542290E-2,7.184028625E-2,-5.597400665E-2
7.205973501E0,-3.770865500E-2,6.968975067E-2,-7.108116150E-2
7.210973501E0,-7.154373825E-2,7.425975800E-2,-9.893369675E-2
7.215973501E0,-1.118088737E-1,7.758092880E-2,-1.264662743E-1
7.220973501E0,-1.267663091E-1,1.030998230E-1,-1.440834999E-1
7.225973501E0,-1.579749882E-1,1.378378868E-1,-1.744885445E-1
7.230973501E0,-2.182269096E-1,1.339797974E-1,-1.939339638E-1
7.235973501E0,-2.298362404E-1,1.508750916E-1,-2.048206329E-1
7.240973501E0,-2.496026307E-1,1.720380783E-1,-1.745109558E-1
7.245973501E0,-2.604463100E-1,1.791167259E-1,-1.271905899E-1
7.250973501E0,-2.823843062E-1,1.768527031E-1,-3.787708282E-2
7.255973501E0,-2.675497532E-1,1.759805679E-1,1.425981522E-2
7.260973501E0,-2.322456837E-1,1.666369438E-1,2.918672562E-2
7.265973501E0,-1.971091032E-1,1.746578217E-1,2.887916565E-2
7.270973501E0,-1.521033347E-1,1.631956100E-1,-2.204608917E-2
7.275973501E0,-1.193233579E-1,1.716747284E-1,-7.566690445E-2
7.280973501E0,-1.068771333E-1,1.439247131E-1,-1.397356987E-1
7.285973501E0,-9.165664017E-2,1.136746407E-1,-2.094869614E-1
7.290973501E0,-7.743206620E-2,9.888029099E-2,-2.524824142E-1
7.295973501E0,-6.941707432E-2,9.813833237E-2,-2.725591660E-1
7.300973501E0,-3.997011483E-2,1.040453911E-1,-2.636094093E-1
7.305973501E0,-6.073218584E-2,1.209688187E-1,-2.733750343E-1
7.310973501E0,-6.371144950E-2,1.265487671E-1,-3.007645607E-1
7.315973501E0,-4.729306698E-2,1.235022545E-1,-3.186039925E-1
7.320973501E0,-5.962125957E-2,1.456813812E-1,-3.791761398E-1
7.325973501E0,-8.419393003E-2,1.713752747E-1,-4.514417648E-1
7.330973501E0,-1.154766679E-1,2.032656670E-1,-4.758296013E-1
7.335973501E0,-1.107935905E-1,2.475180626E-1,-5.201854706E-1
7.340973501E0,-1.070275158E-1,3.003330231E-1,-4.904813766E-1
7.345973501E0,-1.148566008E-1,3.206043243E-1,-4.437985420E-1
7.350973501E0,-1.043429673E-1,3.324990273E-1,-3.854637146E-1
7.355973501E0,-7.301859558E-2,3.354887962E-1,-3.072915077E-1
7.360973501E0,-3.987704217E-2,2.978672981E-1,-2.087817192E-1
7.365973501E0,-1.164461672E-2,2.630848885E-1,-8.569812775E-2
7.370973501E0,1.688218117E-2,2.405619621E-1,3.005504608E-2
7.375973501E0,5.992831290E-2,1.998319626E-1,1.261458397E-1
7.380973501E0,1.007295102E-1,1.556210518E-1,2.145047188E-1
7.385973501E0,1.352286935E-1,1.154088974E-1,2.499942780E-1
7.390973501E0,1.602833271E-1,1.046786308E-1,2.550272942E-1
7.395973501E0,1.611675620E-1,1.037621498E-1,2.064771652E-1
7.400973501E0,1.271089166E-1,1.319179535E-1,7.753038406E-2
7.405973501E0,6.111738831E-2,1.447472572E-1,-1.949024200E-2
7.410973501E0,1.921509206E-2,1.788887978E-1,-9.817361832E-2
7.415973501E0,-3.201863170E-2,2.104015350E-1,-1.617221832E-1
7.420973501E0,-6.143178046E-2,2.358589172E-1,-2.118268013E-1
7.425973501E0,-9.732142091E-2,2.545490265E-1,-2.797851562E-1
7.430973501E0,-1.889377683E-1,2.676625252E-1,-3.425269127E-1
7.435973501E0,-2.475641072E-1,2.875018120E-1,-3.418908119E-1
7.440973501E0,-1.803410500E-1,3.121733665E-1,-3.457388878E-1
7.445973501E0,-5.895471573E-2,2.970151901E-1,-3.298230171E-1
7.450973501E0,6.799643487E-2,2.611603737E-1,-3.451128006E-1
7.455973501E0,1.956727356E-1,2.008433342E-1,-3.854703903E-1
7.460973501E0,3.220434487E-1,1.545877457E-1,-4.188499451E-1
7.465973501E0,4.650490284E-1,1.528363228E-1,-4.493451118E-1
7.470973501E0,5.213835835E-1,1.425309181E-1,-4.798312187E-1
7.475973501E0,5.559344292E-1,1.721625328E-1,-4.876394272E-1
7.480973501E0,5.387043357E-1,1.915221214E-1,-4.780983925E-1
7.485973501E0,5.317106247E-1,1.929578781E-1,-4.737486839E-1
7.490973501E0,5.586158037E-1,2.190294266E-1,-5.092458725E-1
7.495973501E0,5.308327675E-1,2.287220955E-1,-5.325794220E-1
7.500973501E0,4.974992871E-1,2.477374077E-1,-5.565600395E-1
7.505973501E0,5.156292319E-1,2.967138290E-1,-5.876555443E-1
7.510973501E0,4.799807966E-1,3.243122101E-1,-6.190581322E-1
7.515973501E0,4.094354808E-1,3.234567642E-1,-6.025567055E-1
7.520973501E0,3.591665924E-1,3.590989113E-1,-5.007247925E-1
7.525973501E0,2.921872735E-1,3.754577637E-1,-4.153461456E-1
7.530973501E0,2.257100195E-1,3.474278450E-1,-3.710613251E-1
7.535973501E0,1.743728667E-1,3.407573700E-1,-2.898535728E-1
7.540973501E0,2.146666348E-1,3.572592735E-1,-1.652560234E-1
7.545973501E0,2.413368225E-1,3.323354721E-1,-8.045434952E-2
7.550973501E0,2.740637064E-1,2.806463242E-1,-8.895874023E-2
7.555973501E0,3.704452515E-1,2.636160851E-1,-1.050028801E-1
7.560973501E0,4.615436196E-1,2.880635262E-1,-1.109886169E-1
7.565973501E0,5.268776417E-1,3.138208389E-1,-1.657943726E-1
7.570973501E0,5.605643988E-1,2.869267464E-1,-2.963809967E-1
7.575973501E0,5.930619240E-1,3.494672775E-1,-3.974761963E-1
7.580973501E0,6.599827409E-1,4.138545990E-1,-5.110383034E-1
7.585973501E0,7.371431589E-1,4.872984886E-1,-6.329965591E-1
7.590973501E0,6.851801276E-1,5.372090340E-1,-7.761564255E-1
7.595973501E0,6.659341455E-1,5.846714973E-1,-8.697633743E-1
7.600973501E0,6.887123585E-1,6.814713478E-1,-8.780980110E-1
7.605973501E0,6.948341727E-1,7.916154861E-1,-8.696870804E-1
7.610973501E0,6.673948765E-1,8.585319519E-1,-8.862476349E-1
7.615973501E0,6.089049578E-1,8.855347633E-1,-8.887324333E-1
7.620973501E0,5.232084990E-1,8.868708611E-1,-8.664546013E-1
7.625973501E0,4.158568084E-1,8.827328682E-1,-8.358836174E-1
7.630973501E0,3.509451747E-1,9.006347656E-1,-7.604804039E-1
7.635973501E0,3.086060882E-1,8.659791946E-1,-6.365923882E-1
7.640973501E0,2.804089189E-1,8.024144173E-1,-4.850711823E-1
7.645973501E0,2.868710160E-1,7.221508026E-1,-3.782730103E-1
7.650973501E0,2.849195600E-1,6.165504456E-1,-2.541680336E-1
7.655973501E0,2.482995987E-1,5.710077286E-1,-1.144747734E-1
7.660973501E0,2.352200449E-1,5.212574005E-1,-1.936864853E-2
7.665973501E0,2.238863260E-1,4.635810852E-1,2.375268936E-2
7.670973501E0,2.076149583E-1,4.227805138E-1,8.654689789E-2
7.675973501E0,2.477622479E-1,4.386501312E-1,7.601547241E-2
7.680973501E0,2.403478771E-1,4.173092842E-1,4.765129089E-2
7.685973501E0,2.615241408E-1,4.002008438E-1,-2.085733414E-2
7.690973501E0,3.512935042E-1,4.350256920E-1,-8.736944199E-2
7.695973501E0,4.174325466E-1,4.509282112E-1,-2.280030251E-1
7.700973501E0,3.805447221E-1,4.570884705E-1,-4.308991432E-1
7.705973501E0,3.724341094E-1,4.636621475E-1,-6.097722054E-1
7.710973501E0,3.564713001E-1,5.168890953E-1,-7.223548889E-1
7.715973501E0,3.363400698E-1,5.530757904E-1,-8.662834167E-1
7.720973501E0,2.909020782E-1,5.582518578E-1,-9.907598495E-1
7.725973501E0,2.557652593E-1,5.327725410E-1,-1.091337204E0
7.730973501E0,2.132831961E-1,5.015840530E-1,-1.165803432E0
7.735973501E0,1.770345271E-1,4.790658951E-1,-1.160343170E0
7.740973501E0,1.549630314E-1,4.678416252E-1,-1.092516899E0
7.745973501E0,1.222524494E-1,4.501214027E-1,-9.781532288E-1
7.750973501E0,1.068669111E-1,4.355921745E-1,-8.374910355E-1
7.755973501E0,1.216612607E-1,4.054746628E-1,-7.188439369E-1
7.760973501E0,1.600474119E-1,3.886904716E-1,-6.436376572E-1
7.765973501E0,1.739281714E-1,3.513960838E-1,-5.756945610E-1
7.770973501E0,2.158620209E-1,3.231563568E-1,-5.431914330E-1
7.775973501E0,3.195416033E-1,3.205356598E-1,-5.130496025E-1
7.780973501E0,3.240845203E-1,3.308243752E-1,-5.050053596E-1
7.785973501E0,2.720788121E-1,3.384938240E-1,-5.023736954E-1
7.790973501E0,1.969158351E-1,3.479642868E-1,-5.163798332E-1
7.795973501E0,1.725140810E-1,3.751239777E-1,-5.259642601E-1
7.800973501E0,1.683265865E-1,4.107856750E-1,-4.942846298E-1
7.805973501E0,1.671401709E-1,4.369754791E-1,-4.786109924E-1
7.810973501E0,2.055978328E-1,4.331407547E-1,-5.433373451E-1
7.815973501E0,2.460503876E-1,4.277048111E-1,-6.367235184E-1
7.820973501E0,2.559381425E-1,4.262070656E-1,-7.165064812E-1
7.825973501E0,2.704323828E-1,4.232392311E-1,-7.623043060E-1
7.830973501E0,3.014961481E-1,4.499535561E-1,-7.676196098E-1
7.835973501E0,3.530362248E-1,4.395380020E-1,-7.593550682E-1
7.840973501E0,3.787887692E-1,4.248466492E-1,-6.538486481E-1
7.845973501E0,4.484292567E-1,4.555411339E-1,-5.255951881E-1
7.850973501E0,4.770142436E-1,4.842119217E-1,-4.116759300E-1
7.855973501E0,4.709772170E-1,4.943327904E-1,-2.824440002E-1
7.860973501E0,4.376372993E-1,4.898390770E-1,-1.117482185E-1
7.865973501E0,4.041768610E-1,4.704093933E-1,5.893039703E-2
7.870973501E0,3.990561962E-1,4.650602341E-1,2.085509300E-1
7.875973501E0,3.625626266E-1,4.663739204E-1,3.351349831E-1
7.880973501E0,3.013294935E-1,4.669976234E-1,3.982696533E-1
7.885973501E0,2.650558949E-1,4.692406654E-1,3.535957336E-1
7.890973501E0,2.225637138E-1,4.726662636E-1,2.735033035E-1
7.895973501E0,2.663722038E-1,4.614214897E-1,1.086049080E-1
7.900973501E0,3.411010802E-1,4.397692680E-1,-1.017408371E-1
7.905973501E0,3.862068951E-1,4.060149193E-1,-2.742428780E-1
7.910973501E0,4.116910696E-1,3.839130402E-1,-3.188457489E-1
7.915973501E0,4.660511017E-1,3.889813423E-1,-3.586964607E-1
7.920973501E0,4.764630198E-1,3.902468681E-1,-4.040031433E-1
7.925973501E0,4.935986996E-1,3.717265129E-1,-4.783048630E-1
7.930973501E0,4.772784114E-1,3.437700272E-1,-6.041111946E-1
7.935973501E0,4.295932651E-1,3.395876884E-1,-7.055964470E-1
7.940973501E0,3.416697383E-1,3.663430214E-1,-7.671656609E-1
7.945973501E0,2.145430595E-1,4.095587730E-1,-7.792377472E-1
7.950973501E0,-2.140274644E-2,4.705643654E-1,-7.426981926E-1
7.955973501E0,-2.617996335E-1,5.291471481E-1,-6.324915886E-1
7.960973501E0,-4.120988846E-1,5.681967735E-1,-4.766826630E-1
7.965973501E0,-5.190154910E-1,6.034688950E-1,-2.947196960E-1
7.970973501E0,-5.908424854E-1,6.222414970E-1,-7.515239716E-2
7.975973501E0,-6.727275252E-1,6.595597267E-1,6.705093384E-2
7.980973501E0,-7.328289747E-1,6.874876022E-1,1.567544937E-1
7.985973501E0,-7.957764268E-1,6.988291740E-1,2.069668770E-1
7.990973501E0,-8.245211840E-1,7.438793182E-1,2.966947556E-1
7.995973501E0,-7.951930165E-1,7.873568535E-1,4.276747704E-1
8.000973501E0,-7.382434607E-1,8.147749901E-1,5.415000916E-1
8.005973501E0,-7.118976116E-1,8.346567154E-1,6.310296059E-1
8.010973501E0,-6.667308807E-1,8.524570465E-1,6.971111298E-1
8.015973501E0,-6.008281708E-1,8.837962151E-1,7.156391144E-1
8.020973501E0,-5.196838975E-1,9.253053665E-1,6.843376160E-1
8.025973501E0,-4.406155050E-1,9.507369995E-1,6.356215477E-1
8.030973501E0,-3.872338831E-1,9.613819122E-1,5.930604935E-1
8.035973501E0,-3.269920945E-1,9.577240944E-1,5.841116905E-1
8.040973501E0,-2.783235908E-1,9.678568840E-1,5.888323784E-1
8.045973501E0,-2.470876575E-1,9.785747528E-1,6.250100136E-1
8.050973501E0,-2.715816498E-1,9.904012680E-1,7.007560730E-1
8.055973501E0,-2.992763221E-1,1.001131058E0,8.105807304E-1
8.060973501E0,-3.075183630E-1,9.947447777E-1,9.566187859E-1
8.065973501E0,-3.424129784E-1,9.888548851E-1,1.141222477E0
8.070973501E0,-4.375606775E-1,9.556479454E-1,1.364501476E0
8.075973501E0,-5.033656359E-1,9.004840851E-1,1.529924870E0
8.080973501E0,-5.691184998E-1,8.708810806E-1,1.674958706E0
8.085973501E0,-5.754102468E-1,8.486175537E-1,1.824749470E0
8.090973501E0,-5.748833418E-1,7.806468010E-1,1.943872452E0
8.095973501E0,-5.402806997E-1,6.959075928E-1,2.047293186E0
8.100973501E0,-4.715451002E-1,6.233329773E-1,2.154348850E0
8.105973501E0,-4.248174429E-1,5.596361160E-1,2.281599045E0
8.110973501E0,-4.090364575E-1,4.837713242E-1,2.431606770E0
8.115973501E0,-4.065677524E-1,3.695464134E-1,2.513045788E0
8.120973501E0,-3.056466579E-1,2.843275070E-1,2.542631626E0
8.125973501E0,-1.923369765E-1,2.420701981E-1,2.464185238E0
8.130973501E0,-1.241475344E-1,2.044925690E-1,2.266227722E0
8.135973501E0,-1.087847352E-1,1.820130348E-1,2.013183594E0
8.140973501E0,-1.442590356E-1,1.716794968E-1,1.771635532E0
8.145973501E0,-1.543933153E-1,1.628923416E-1,1.508627892E0
8.150973501E0,-2.086772919E-1,1.376986504E-1,1.324772835E0
8.155973501E0,-2.182272077E-1,1.003389359E-1,1.120227814E0
8.160973501E0,-2.185261846E-1,1.255989075E-2,9.482698441E-1
8.165973501E0,-1.913986802E-1,-9.006261826E-2,8.589229584E-1
8.170973501E0,-1.514776349E-1,-1.642193794E-1,8.215827942E-1
8.175973501E0,-1.224910617E-1,-2.789859772E-1,8.809566498E-1
8.180973501E0,-4.195648432E-2,-3.621225357E-1,9.446754456E-1
8.185973501E0,1.533824205E-2,-4.707961082E-1,1.016716003E0
8.190973501E0,5.406308174E-2,-5.745673180E-1,1.046833038E0
8.195973501E0,7.453918457E-2,-6.694016457E-1,1.041541100E0
8.200973501E0,9.497550130E-2,-7.426657677E-1,1.045452595E0
8.205973501E0,6.566268206E-2,-7.978367805E-1,1.050188065E0
8.210973501E0,2.581822872E-2,-8.483624458E-1,1.043336391E0
8.215973501E0,-3.325915337E-2,-8.593063354E-1,1.011699200E0
8.220973501E0,-9.980589151E-2,-8.679161072E-1,9.241046906E-1
8.225973501E0,-2.375761867E-1,-8.757696152E-1,8.396453857E-1
8.230973501E0,-4.061230421E-1,-8.878145218E-1,7.408266068E-1
8.235973501E0,-5.210788846E-1,-9.066057205E-1,6.333398819E-1
8.240973501E0,-6.124987602E-1,-9.386687279E-1,5.497083664E-1
8.245973501E0,-7.165820599E-1,-9.369397163E-1,4.797134399E-1
8.250973501E0,-8.111991882E-1,-9.268512726E-1,3.660511971E-1
8.255973501E0,-8.785715103E-1,-9.237065315E-1,2.114291191E-1
8.260973501E0,-9.249425530E-1,-9.377784729E-1,7.369518280E-3
8.265973501E0,-9.598420262E-1,-9.687647820E-1,-1.294441223E-1
8.270973501E0,-9.356384277E-1,-1.008029938E0,-1.927938461E-1
8.275973501E0,-8.502694368E-1,-1.056328297E0,-1.690106392E-1
8.280973501E0,-7.505168915E-1,-1.142177582E0,-5.826568604E-2
8.285973501E0,-6.285920143E-1,-1.204207897E0,5.858516693E-2
8.290973501E0,-5.368517637E-1,-1.294763088E0,1.564879417E-1
8.295973501E0,-4.702190757E-1,-1.385785103E0,3.305993080E-1
8.300973501E0,-4.198259711E-1,-1.449583530E0,5.228657722E-1
8.305973501E0,-3.678634763E-1,-1.504159451E0,6.573629379E-1
8.310973501E0,-3.043690920E-1,-1.550101757E0,7.580642700E-1
8.315973501E0,-2.124685645E-1,-1.576768875E0,7.669548988E-1
8.320973501E0,-1.377439499E-1,-1.562542915E0,6.923594475E-1
8.325973501E0,-1.566097736E-1,-1.527114868E0,5.674581528E-1
8.330973501E0,-2.523289919E-1,-1.460424423E0,4.570717812E-1
8.335973501E0,-3.740976453E-1,-1.370301723E0,3.648772240E-1
8.340973501E0,-5.336260796E-1,-1.256593704E0,2.495641708E-1
8.345973501E0,-7.075850368E-1,-1.144701958E0,8.922052383E-2
8.350973501E0,-8.619675040E-1,-9.924011230E-1,-8.584165573E-2
8.355973501E0,-1.030610085E0,-8.770208359E-1,-2.668190002E-1
8.360973501E0,-1.165098310E0,-7.715706825E-1,-3.944315910E-1
8.365973501E0,-1.233227372E0,-6.980133057E-1,-5.239973068E-1
8.370973501E0,-1.233278394E0,-6.541395187E-1,-6.300764084E-1
8.375973501E0,-1.225552559E0,-6.100344658E-1,-6.999554634E-1
8.380973501E0,-1.220323920E0,-5.973134041E-1,-7.938833237E-1
8.385973501E0,-1.236586332E0,-5.992522240E-1,-8.845348358E-1
8.390973501E0,-1.243007183E0,-6.042523384E-1,-9.602522850E-1
8.395973501E0,-1.201797485E0,-6.160278320E-1,-9.610676765E-1
8.400973501E0,-1.131362200E0,-6.447925568E-1,-9.259381294E-1
8.405973501E0,-1.045066833E0,-6.890821457E-1,-8.539619446E-1
8.410973501E0,-9.811427593E-1,-7.545065880E-1,-7.584385872E-1
8.415973501E0,-8.887783289E-1,-8.345150948E-1,-6.067023277E-1
8.420973501E0,-7.761030197E-1,-9.118866920E-1,-4.232239723E-1
8.425973501E0,-6.368556023E-1,-9.901499748E-1,-2.519288063E-1
8.430973501E0,-5.327810645E-1,-1.046155930E0,-1.321616173E-1
8.435973501E0,-4.227777123E-1,-1.084980965E0,4.658699036E-3
8.440973501E0,-3.648282886E-1,-1.104528904E0,1.179757118E-1
8.445973501E0,-3.220405579E-1,-1.108579636E0,1.989283562E-1
8.450973501E0,-2.459777594E-1,-1.127034664E0,2.275314331E-1
8.455973501E0,-1.215519905E-1,-1.119765759E0,2.015514374E-1
8.460973501E0,-3.775739670E-2,-1.094151497E0,1.236777306E-1
8.465973501E0,2.352607250E-2,-1.045296669E0,-3.536891937E-2
8.470973501E0,6.437242031E-2,-9.757270813E-1,-2.732210159E-1
8.475973501E0,6.580913067E-2,-8.847284317E-1,-5.335402489E-1
8.480973501E0,3.120619059E-2,-8.326115608E-1,-7.729139328E-1
8.485973501E0,-7.177352905E-3,-7.928714752E-1,-9.384593964E-1
8.490973501E0,-3.886204958E-2,-7.298288345E-1,-1.047418594E0
8.495973501E0,-5.724120140E-2,-7.087903023E-1,-1.090834618E0
8.500973501E0,-7.610219717E-2,-6.784377098E-1,-1.113020420E0
8.505973501E0,-1.120474935E-1,-6.541185379E-1,-1.107452869E0
8.510973501E0,-1.122397184E-1,-6.580233574E-1,-1.107720852E0
8.515973501E0,-1.174729466E-1,-6.481122971E-1,-1.072993755E0
8.520973501E0,-1.348714828E-1,-6.693906784E-1,-1.023550034E0
8.525973501E0,-7.530003786E-2,-6.744070053E-1,-9.610271454E-1
8.530973501E0,1.806378365E-3,-6.775393486E-1,-8.770341873E-1
8.535973501E0,4.020285606E-2,-6.871809959E-1,-8.013939857E-1
8.540973501E0,5.718833208E-2,-6.816916466E-1,-7.720646858E-1
8.545973501E0,1.035250425E-1,-6.602406502E-1,-7.328629494E-1
8.550973501E0,1.525893509E-1,-6.382026672E-1,-7.172250748E-1
8.555973501E0,1.405141056E-1,-5.910363197E-1,-6.300468445E-1
8.560973501E0,9.932273626E-2,-5.343270302E-1,-5.527734756E-1
8.565973501E0,3.293734789E-2,-4.768629074E-1,-4.635038376E-1
8.570973501E0,-3.032732010E-2,-4.171867371E-1,-3.451490402E-1
8.575973501E0,-8.717495203E-2,-3.572778702E-1,-2.893662453E-1
8.580973501E0,-1.296670437E-1,-2.878794670E-1,-2.572965622E-1
8.585973501E0,-1.583625674E-1,-2.274637222E-1,-2.372026443E-1
8.590973501E0,-1.796467304E-1,-1.599855423E-1,-2.882652283E-1
8.595973501E0,-2.001383901E-1,-1.001491547E-1,-3.667988777E-1
8.600973501E0,-2.249724865E-1,-2.847051620E-2,-4.200730324E-1
8.605973501E0,-2.085158825E-1,4.965162277E-2,-4.523720741E-1
8.610973501E0,-1.647168994E-1,1.309132576E-1,-4.569544792E-1
8.615973501E0,-1.543807387E-1,1.972475052E-1,-4.782743454E-1
8.620973501E0,-8.315289021E-2,2.582030296E-1,-5.421514511E-1
8.625973501E0,-9.350746870E-2,3.214101791E-1,-6.417269707E-1
8.630973501E0,-1.633462906E-1,3.691782951E-1,-6.739168167E-1
8.635973501E0,-2.389765978E-1,4.319529533E-1,-6.179471016E-1
8.640973501E0,-3.114762902E-1,5.018382072E-1,-5.054426193E-1
8.645973501E0,-3.589282036E-1,5.582451820E-1,-3.400793076E-1
8.650973501E0,-3.764670491E-1,5.827684402E-1,-1.975617409E-1
8.655973501E0,-3.751858175E-1,6.189603806E-1,-7.181072235E-2
8.660973501E0,-3.900609016E-1,6.334462166E-1,-1.320981979E-2
8.665973501E0,-4.238277674E-1,6.414747238E-1,9.519290924E-2
8.670973501E0,-4.084389210E-1,6.611332893E-1,1.759781837E-1
8.675973501E0,-3.746195734E-1,6.830458641E-1,2.939434052E-1
8.680973501E0,-3.046694398E-1,6.864686012E-1,4.091353416E-1
8.685973501E0,-2.299284637E-1,6.731095314E-1,4.758720398E-1
8.690973501E0,-2.079716027E-1,7.092804909E-1,4.997997284E-1
8.695973501E0,-1.589373648E-1,6.918463707E-1,4.870872498E-1
8.700973501E0,-1.011462808E-1,6.644811630E-1,4.146909714E-1
8.705973501E0,-2.327024937E-3,6.332640648E-1,3.922882080E-1
8.710973501E0,1.005993783E-1,6.029481888E-1,3.723754883E-1
8.715973501E0,1.604852378E-1,5.530018806E-1,3.321619034E-1
8.720973501E0,1.545148939E-1,4.949045181E-1,2.692532539E-1
8.725973501E0,9.447005391E-2,4.719376564E-1,2.660217285E-1
8.730973501E0,2.230957150E-2,4.790735245E-1,3.735089302E-1
8.735973501E0,-2.795648575E-2,4.554481506E-1,5.859141350E-1
8.740973501E0,-6.326144934E-2,4.260425568E-1,8.132929802E-1
8.745973501E0,-1.030422747E-1,4.227747917E-1,1.035471916E0
8.750973501E0,-1.556730568E-1,4.110546112E-1,1.163211823E0
8.755973501E0,-2.220599651E-1,4.189915657E-1,1.204176903E0
8.760973501E0,-2.601916492E-1,4.263210297E-1,1.225309372E0
8.765973501E0,-2.405179739E-1,4.504852295E-1,1.255940437E0
8.770973501E0,-2.322757542E-1,4.864253998E-1,1.311901569E0
8.775973501E0,-1.915493309E-1,5.289511681E-1,1.324440002E0
8.780973501E0,-1.070941538E-1,6.074156761E-1,1.293855667E0
8.785973501E0,-3.474533558E-2,7.206668854E-1,1.228826523E0
8.790973501E0,6.171602011E-2,8.110213280E-1,1.113383770E0
8.795973501E0,1.399942487E-1,8.933768272E-1,9.991283417E-1
8.800973501E0,1.462625563E-1,9.429044724E-1,9.399981499E-1
8.805973501E0,1.041123345E-1,9.897294044E-1,9.794435501E-1
8.810973501E0,5.684889853E-2,1.071109772E0,1.093620777E0
8.815973501E0,-5.294024944E-3,1.142348289E0,1.273497105E0
8.820973501E0,-2.668155730E-2,1.206159592E0,1.486197472E0
8.825973501E0,-8.078962564E-3,1.199821472E0,1.605449200E0
8.830973501E0,3.974663466E-2,1.213616371E0,1.640179157E0
8.835973501E0,9.781087935E-2,1.201464653E0,1.622902870E0
8.840973501E0,1.626081467E-1,1.172007561E0,1.593367100E0
8.845973501E0,2.186901867E-1,1.124391556E0,1.554546356E0
8.850973501E0,2.264568806E-1,1.045537949E0,1.474375248E0
8.855973501E0,1.835071146E-1,9.745635986E-1,1.386810303E0
8.860973501E0,1.006804183E-1,9.034552574E-1,1.346457481E0
8.865973501E0,-9.976387024E-3,8.249239922E-1,1.296976089E0
8.870973501E0,-1.189023852E-1,6.948156357E-1,1.275245190E0
8.875973501E0,-1.962260008E-1,5.263624191E-1,1.295023441E0
8.880973501E0,-2.521557808E-1,3.177018166E-1,1.336754799E0
8.885973501E0,-2.632974386E-1,1.279492378E-1,1.462406158E0
8.890973501E0,-2.362629920E-1,-8.535337448E-2,1.598746300E0
8.895973501E0,-1.946591139E-1,-3.108282089E-1,1.715986252E0
8.900973501E0,-1.558098197E-1,-5.616698265E-1,1.861352444E0
8.905973501E0,-1.274155676E-1,-8.269214630E-1,1.941035748E0
8.910973501E0,-8.012722433E-2,-1.036932468E0,1.978975296E0
8.915973501E0,-3.218514100E-2,-1.233947277E0,2.009812355E0
8.920973501E0,3.295236826E-2,-1.396098614E0,1.978962421E0
8.925973501E0,1.371020973E-1,-1.536031723E0,1.903936863E0
8.930973501E0,2.843622565E-1,-1.627799034E0,1.730493069E0
8.935973501E0,4.390474260E-1,-1.676392555E0,1.458559513E0
8.940973501E0,5.640801787E-1,-1.683656216E0,1.059552670E0
8.945973501E0,6.399255395E-1,-1.661059380E0,6.187977791E-1
8.950973501E0,7.047836781E-1,-1.622722149E0,1.821260452E-1
8.955973501E0,7.854759693E-1,-1.560690403E0,-1.923146248E-1
8.960973501E0,8.346526623E-1,-1.523813725E0,-4.278964996E-1
8.965973501E0,9.355689287E-1,-1.510149479E0,-5.434999466E-1
8.970973501E0,1.128097057E0,-1.509770393E0,-6.168742180E-1
8.975973501E0,1.325657606E0,-1.523588181E0,-6.720480919E-1
8.980973501E0,1.523100734E0,-1.514387131E0,-7.376294136E-1
8.985973501E0,1.673060894E0,-1.490428925E0,-7.778010368E-1
8.990973501E0,1.735247135E0,-1.481367588E0,-7.218418121E-1
8.995973501E0,1.802120924E0,-1.488323689E0,-6.318254471E-1
9.000973501E0,1.812420011E0,-1.460526943E0,-5.282511711E-1
9.005973501E0,1.743641853E0,-1.395421982E0,-4.354796410E-1
9.010973501E0,1.649734855E0,-1.331334114E0,-3.568153381E-1
9.015973501E0,1.528960228E0,-1.262989521E0,-2.848205566E-1
9.020973501E0,1.370760798E0,-1.211670399E0,-2.749242783E-1
9.025973501E0,1.200365067E0,-1.159879684E0,-3.207411766E-1
9.030973501E0,1.035769224E0,-1.133747578E0,-3.957448006E-1
9.035973501E0,8.271823525E-1,-1.104732990E0,-4.449343681E-1
9.040973501E0,6.232106090E-1,-1.060178280E0,-4.768047333E-1
9.045973501E0,4.606586099E-1,-1.051382065E0,-4.859609604E-1
9.050973501E0,3.325138688E-1,-1.064635277E0,-4.837064743E-1
9.055973501E0,2.699081898E-1,-1.075137138E0,-4.078111649E-1
9.060973501E0,2.220061719E-1,-1.103270531E0,-3.540453911E-1
9.065973501E0,2.045703679E-1,-1.158241749E0,-3.370628357E-1
9.070973501E0,2.231994718E-1,-1.183917522E0,-3.470287323E-1
9.075973501E0,2.352306694E-1,-1.166969776E0,-3.913736343E-1
9.080973501E0,2.398127019E-1,-1.169516563E0,-4.641385078E-1
9.085973501E0,2.507502139E-1,-1.178271294E0,-5.733079910E-1
9.090973501E0,2.679306567E-1,-1.166159630E0,-6.859664917E-1
9.095973501E0,3.781363666E-1,-1.160292149E0,-7.266755104E-1
9.100973501E0,4.943726659E-1,-1.159464359E0,-8.466506004E-1
9.105973501E0,5.657478571E-1,-1.148879051E0,-9.583234787E-1
9.110973501E0,6.203441620E-1,-1.121677399E0,-1.095728874E0
9.115973501E0,6.633169651E-1,-1.072469711E0,-1.203211784E0
9.120973501E0,6.835125089E-1,-1.029297829E0,-1.239263535E0
9.125973501E0,6.994020343E-1,-9.631772041E-1,-1.237140179E0
9.130973501E0,7.015192509E-1,-9.274053574E-1,-1.147358418E0
9.135973501E0,6.351853609E-1,-9.159498215E-1,-1.021492481E0
9.140973501E0,5.338386893E-1,-9.073791504E-1,-8.339004517E-1
9.145973501E0,4.274592400E-1,-9.447655678E-1,-5.869083405E-1
9.150973501E0,3.791634440E-1,-1.019995689E0,-3.063583374E-1
9.155973501E0,4.032738209E-1,-1.096449852E0,-3.622674942E-2
9.160973501E0,4.235969186E-1,-1.190914154E0,1.317925453E-1
9.165973501E0,4.136444926E-1,-1.249646664E0,2.412834167E-1
9.170973501E0,3.490502238E-1,-1.271781921E0,2.499451637E-1
9.175973501E0,2.849268317E-1,-1.290414333E0,2.023496628E-1
9.180973501E0,2.397668064E-1,-1.272675037E0,9.110879898E-2
9.185973501E0,1.810259819E-1,-1.238916397E0,-5.469417572E-2
9.190973501E0,1.051965803E-1,-1.212396145E0,-2.538633347E-1
9.195973501E0,1.120825261E-1,-1.146672726E0,-4.668989182E-1
9.200973501E0,1.341823786E-1,-1.069705009E0,-6.996440887E-1
9.205973501E0,1.046720669E-1,-9.929981232E-1,-9.583725929E-1
9.210973501E0,9.158935398E-2,-9.141244888E-1,-1.188042164E0
9.215973501E0,7.040844858E-2,-8.511810303E-1,-1.410039902E0
9.220973501E0,6.134282798E-2,-7.920389175E-1,-1.535845757E0
9.225973501E0,2.741244435E-2,-7.494139671E-1,-1.584501743E0
9.230973501E0,-8.720770478E-3,-7.329144478E-1,-1.505643845E0
9.235973501E0,1.417425275E-2,-7.123980522E-1,-1.449630737E0
9.240973501E0,1.518011093E-3,-6.896471977E-1,-1.386718750E0
9.245973501E0,-1.428224146E-2,-6.533637047E-1,-1.330649853E0
9.250973501E0,-2.915798128E-2,-6.128258705E-1,-1.227633476E0
9.255973501E0,-4.263147712E-3,-5.760807991E-1,-1.111620426E0
9.260973501E0,6.059028208E-2,-5.597009659E-1,-1.009935856E0
9.265973501E0,1.429129243E-1,-5.451436043E-1,-9.198851585E-1
9.270973501E0,1.655853838E-1,-5.371327400E-1,-8.620810509E-1
9.275973501E0,1.344852448E-1,-4.930095673E-1,-8.046092987E-1
9.280973501E0,8.198472857E-2,-4.544863701E-1,-7.366752625E-1
9.285973501E0,5.537828803E-2,-4.006872177E-1,-6.559782028E-1
9.290973501E0,9.424084425E-2,-3.107814789E-1,-5.719709396E-1
9.295973501E0,1.577156186E-1,-1.459021568E-1,-4.895358086E-1
9.300973501E0,1.559693515E-1,8.483409882E-3,-4.748849869E-1
9.305973501E0,1.620692760E-1,1.428442001E-1,-5.298647881E-1
9.310973501E0,1.603741944E-1,2.915625572E-1,-6.172919273E-1
9.315973501E0,1.861200035E-1,4.187145233E-1,-5.969986916E-1
9.320973501E0,1.730397195E-1,5.578570366E-1,-5.236320496E-1
9.325973501E0,1.357980371E-1,6.750302315E-1,-4.078388214E-1
9.330973501E0,-7.747411728E-4,7.939248085E-1,-2.284336090E-1
9.335973501E0,-1.349261999E-1,8.752379417E-1,-2.978992462E-2
9.340973501E0,-3.115926683E-1,9.748296738E-1,1.944475174E-1
9.345973501E0,-4.922989905E-1,1.070965767E0,4.589600563E-1
9.350973501E0,-6.231441498E-1,1.153874397E0,7.678804398E-1
9.355973501E0,-7.388134003E-1,1.199231148E0,1.065862656E0
9.360973501E0,-8.216880560E-1,1.234747410E0,1.293189049E0
9.365973501E0,-8.796801567E-1,1.247061729E0,1.502591610E0
9.370973501E0,-8.187137246E-1,1.245773792E0,1.748712063E0
9.375973501E0,-7.248215675E-1,1.263921738E0,2.001858711E0
9.380973501E0,-6.142107248E-1,1.272572994E0,2.245952606E0
9.385973501E0,-5.165436864E-1,1.317364216E0,2.418208122E0
9.390973501E0,-4.550083876E-1,1.387969017E0,2.583053112E0
9.395973501E0,-3.803921938E-1,1.503022671E0,2.710102081E0
9.400973501E0,-3.145396709E-1,1.637434959E0,2.716569901E0
9.405973501E0,-2.303368449E-1,1.716208458E0,2.647979736E0
9.410973501E0,-1.536775827E-1,1.814359665E0,2.527761459E0
9.415973501E0,-1.718055010E-1,1.878086090E0,2.376703739E0
9.420973501E0,-2.638899684E-1,1.944471836E0,2.198348045E0
9.425973501E0,-3.302776217E-1,2.035542488E0,2.010919571E0
9.430973501E0,-3.839089870E-1,2.111224174E0,1.804439545E0
9.435973501E0,-4.835876226E-1,2.184267521E0,1.586650848E0
9.440973501E0,-6.969760656E-1,2.200991631E0,1.381289482E0
9.445973501E0,-1.012405515E0,2.158752918E0,1.308636665E0
9.450973501E0,-1.311804891E0,2.128861427E0,1.361887455E0
9.455973501E0,-1.529515028E0,2.064794540E0,1.564077377E0
9.460973501E0,-1.712351799E0,1.898368359E0,1.850339890E0
9.465973501E0,-1.821684837E0,1.688028336E0,2.169344902E0
9.470973501E0,-1.905363083E0,1.464565754E0,2.391152859E0
9.475973501E0,-1.977586985E0,1.243994236E0,2.520241737E0
9.480973501E0,-1.986926079E0,1.033068657E0,2.652688026E0
9.485973501E0,-1.936975837E0,7.860989571E-1,2.772095680E0
9.490973501E0,-1.805867791E0,5.407752991E-1,2.816083431E0
9.495973501E0,-1.634136438E0,2.932639122E-1,2.757282734E0
9.500973501E0,-1.398827434E0,6.638002396E-2,2.654522419E0
9.505973501E0,-1.119548082E0,-2.083477974E-1,2.476815701E0
9.510973501E0,-8.868804574E-1,-4.652485847E-1,2.343708038E0
9.515973501E0,-6.987404227E-1,-7.343039513E-1,2.248773575E0
9.520973501E0,-5.504549146E-1,-9.884543419E-1,2.167331696E0
9.525973501E0,-4.010931253E-1,-1.188996315E0,2.130075932E0
9.530973501E0,-2.493817210E-1,-1.360877037E0,2.049115181E0
9.535973501E0,-1.743259430E-1,-1.511956692E0,1.901820660E0
9.540973501E0,-1.926482320E-1,-1.648631573E0,1.757376194E0
9.545973501E0,-2.076245546E-1,-1.795173168E0,1.623194218E0
9.550973501E0,-1.986405253E-1,-1.928565502E0,1.579596519E0
9.555973501E0,-2.037063837E-1,-2.041578770E0,1.596256733E0
9.560973501E0,-1.593007445E-1,-2.114671230E0,1.595709801E0
9.565973501E0,-1.492294669E-1,-2.158700943E0,1.559377670E0
9.570973501E0,-2.047365308E-1,-2.227074146E0,1.487643242E0
9.575973501E0,-3.470283151E-1,-2.246894360E0,1.392405033E0
9.580973501E0,-4.834790230E-1,-2.222494602E0,1.309851170E0
9.585973501E0,-5.502166152E-1,-2.140540600E0,1.195051670E0
9.590973501E0,-5.810093284E-1,-2.050473690E0,1.003820896E0
9.595973501E0,-5.707426667E-1,-1.940178394E0,7.291970253E-1
9.600973501E0,-6.177009940E-1,-1.788465977E0,3.776330948E-1
9.605973501E0,-6.666204929E-1,-1.665288448E0,-2.576923370E-2
9.610973501E0,-7.283095717E-1,-1.635472775E0,-4.443688393E-1
9.615973501E0,-7.462211847E-1,-1.647555828E0,-7.318716049E-1
9.620973501E0,-7.218779325E-1,-1.669687271E0,-9.079055786E-1
9.625973501E0,-6.901357770E-1,-1.635591984E0,-1.023664951E0
9.630973501E0,-6.551549435E-1,-1.573812485E0,-1.082324505E0
9.635973501E0,-6.333971024E-1,-1.515201092E0,-1.002240181E0
9.640973501E0,-5.882714391E-1,-1.491308689E0,-8.749761581E-1
9.645973501E0,-5.209200978E-1,-1.534153461E0,-7.825298309E-1
9.650973501E0,-4.614757895E-1,-1.584438801E0,-6.355576515E-1
9.655973501E0,-3.698639870E-1,-1.606013298E0,-5.177083015E-1
9.660973501E0,-2.840974331E-1,-1.629742146E0,-4.128541946E-1
9.665973501E0,-2.534890175E-1,-1.639403820E0,-3.650822639E-1
9.670973501E0,-2.173061967E-1,-1.664554596E0,-3.623986244E-1
9.675973501E0,-2.329941392E-1,-1.644172668E0,-3.746347427E-1
9.680973501E0,-3.282862306E-1,-1.584505558E0,-4.366517067E-1
9.685973501E0,-4.503637552E-1,-1.526151657E0,-5.487022400E-1
9.690973501E0,-5.600990057E-1,-1.468437672E0,-6.911950111E-1
9.695973501E0,-6.923106313E-1,-1.389603138E0,-8.477153778E-1
9.700973501E0,-7.759655118E-1,-1.321869850E0,-1.055092335E0
9.705973501E0,-8.313627839E-1,-1.287572384E0,-1.256252766E0
9.710973501E0,-8.495213389E-1,-1.267133236E0,-1.478346348E0
9.715973501E0,-8.691483140E-1,-1.247502327E0,-1.635972977E0
9.720973501E0,-8.842296600E-1,-1.219788074E0,-1.761550426E0
9.725973501E0,-8.381757140E-1,-1.176002979E0,-1.878651142E0
9.730973501E0,-7.774440050E-1,-1.199786186E0,-1.949275017E0
9.735973501E0,-7.424587607E-1,-1.221944809E0,-1.981527328E0
9.740973501E0,-7.191995978E-1,-1.226524830E0,-1.963960171E0
9.745973501E0,-6.454500556E-1,-1.258803844E0,-1.919014454E0
9.750973501E0,-5.290326476E-1,-1.336920261E0,-1.823624134E0
9.755973501E0,-4.029701948E-1,-1.408643723E0,-1.681136608E0
9.760973501E0,-3.015046120E-1,-1.472669601E0,-1.544528484E0
9.765973501E0,-2.524846196E-1,-1.487857342E0,-1.423716068E0
9.770973501E0,-1.954297423E-1,-1.520587921E0,-1.352715969E0
9.775973501E0,-1.194274426E-1,-1.569156170E0,-1.241135120E0
9.780973501E0,-5.171054602E-2,-1.571920395E0,-1.141233921E0
9.785973501E0,-8.495271206E-3,-1.575190544E0,-1.094427586E0
9.790973501E0,-5.327641964E-3,-1.562022209E0,-1.136870384E0
9.795973501E0,-1.146960258E-2,-1.525543213E0,-1.255039692E0
9.800973501E0,9.648203850E-4,-1.488985062E0,-1.352548599E0
9.805973501E0,6.891310215E-3,-1.460218430E0,-1.393145084E0
9.810973501E0,-6.899958849E-2,-1.357258320E0,-1.405922890E0
9.815973501E0,-1.368654370E-1,-1.250421524E0,-1.378228188E0
9.820973501E0,-1.765149236E-1,-1.113966942E0,-1.336082935E0
9.825973501E0,-1.970773339E-1,-9.762148857E-1,-1.257921219E0
9.830973501E0,-1.696818471E-1,-8.356676102E-1,-1.145176411E0
9.835973501E0,-1.020591259E-1,-7.166972160E-1,-1.009031296E0
9.840973501E0,-7.473939657E-2,-6.234478951E-1,-7.746586800E-1
9.845973501E0,-2.320164442E-2,-5.328230858E-1,-4.667239189E-1
9.850973501E0,4.232037067E-2,-4.225473404E-1,-1.918649673E-1
9.855973501E0,1.354374290E-1,-3.245239258E-1,3.881692886E-2
9.860973501E0,2.211450338E-1,-2.521176338E-1,2.368097305E-1
9.865973501E0,2.673326731E-1,-2.356963158E-1,4.217615128E-1
9.870973501E0,3.114838302E-1,-2.166705132E-1,5.869598389E-1
9.875973501E0,3.554186523E-1,-1.556386948E-1,7.163333893E-1
9.880973501E0,3.453694582E-1,-5.262947083E-2,7.928318977E-1
9.885973501E0,2.841448188E-1,2.963781357E-2,7.753219604E-1
9.890973501E0,2.068975568E-1,5.042505264E-2,6.817212105E-1
9.895973501E0,2.240574360E-1,7.550287247E-2,5.462312698E-1
9.900973501E0,3.016041815E-1,1.364307404E-1,4.108538628E-1
9.905973501E0,3.594978750E-1,2.126579285E-1,2.942104340E-1
9.910973501E0,3.863363862E-1,2.479786873E-1,1.416978836E-1
9.915973501E0,4.635879695E-1,2.501859665E-1,8.698415756E-2
9.920973501E0,5.513276458E-1,3.062429428E-1,1.972012520E-1
